timestamp_ms,ax,ay,az
6682.0,-4.3622,0.6129,8.509
6692.0,-4.4125,0.9242,8.5569
6702.0,-4.4532,1.2761,8.6981
6712.0,-4.221,1.3719,8.7364
6722.0,-3.9289,1.1995,8.9088
6732.0,-3.802,1.0247,8.916
6742.0,-4.0582,0.8978,9.2081
6752.0,-4.3191,0.8643,9.4475
6762.0,-4.2641,1.154,9.505
6772.0,-4.118,1.3264,9.663
6782.0,-3.8642,1.5467,9.3518
6792.0,-3.9816,1.7382,9.153
6802.0,-4.051,1.6496,9.2584
6812.0,-3.9145,1.8364,9.0692
6822.0,-4.1468,1.8914,9.098
6832.0,-4.2186,1.9417,9.2057
6842.0,-4.13,2.1165,9.098
6852.0,-3.9433,2.1428,8.8969
6862.0,-3.5961,2.241,8.6024
6872.0,-3.2298,2.1955,8.4515
6882.0,-2.9353,2.2529,8.5545
6892.0,-2.8706,2.3559,8.6048
6902.0,-2.9616,2.3798,8.7173
6912.0,-3.1484,2.6456,8.904
6922.0,-3.4907,2.7605,9.0214
6932.0,-3.6871,2.6815,9.0261
6942.0,-3.8786,2.5498,9.1123
6952.0,-3.8475,2.5402,8.9208
6962.0,-3.8211,2.6767,8.8394
6972.0,-3.5985,2.7916,8.8178
6982.0,-3.4285,2.794,8.7508
6992.0,-3.3758,2.806,8.8298
7002.0,-3.3998,2.7342,9.0046
7012.0,-3.5075,2.6504,9.2249
7022.0,-3.5745,2.5307,9.165
7032.0,-3.6392,2.545,9.1363
7042.0,-3.7948,2.6671,9.268
7052.0,-3.6966,2.6959,8.9663
7062.0,-3.6727,2.6647,9.1028
7072.0,-3.6943,2.5809,9.1698
7082.0,-3.8235,2.5211,9.5193
7092.0,-4.1037,2.5714,9.809
7102.0,-4.0893,2.5426,9.5481
7112.0,-4.1492,2.3822,9.5433
7122.0,-3.9241,2.4924,9.1004
7132.0,-4.0749,2.5355,8.8107
7142.0,-4.1348,2.6097,8.6024
7152.0,-4.1563,2.7007,8.825
7162.0,-4.1635,2.6025,8.7939
7172.0,-4.0175,2.6432,9.0549
7182.0,-3.9528,2.5809,9.0214
7192.0,-4.0677,2.5355,9.2584
7202.0,-4.2928,2.4421,9.3757
7212.0,-4.5131,2.3583,9.5026
7222.0,-4.5969,2.1715,9.3829
7232.0,-4.4532,2.4086,9.4619
7242.0,-4.2976,2.2793,9.2009
7252.0,-4.2306,2.3272,9.0668
7262.0,-4.3479,2.3846,8.9519
7272.0,-4.4269,2.3894,8.8969
7282.0,-4.6424,2.4038,8.9352
7292.0,-4.6543,2.3391,8.8394
7302.0,-4.7238,2.2865,8.9974
7312.0,-4.8363,2.217,9.1554
7322.0,-4.9105,2.1524,9.5193
7332.0,-4.9081,2.1069,9.6391
7342.0,-4.7836,2.1141,9.4332
7352.0,-4.6902,2.0303,9.177
7362.0,-4.446,1.9776,8.7867
7372.0,-4.2138,1.8483,8.4276
7382.0,-4.1372,1.7957,8.2432
7392.0,-4.2042,1.7286,8.157
7402.0,-4.379,1.7095,8.3462
7412.0,-4.616,1.6712,8.4779
7422.0,-4.7908,1.5179,8.7484
7432.0,-4.853,1.4509,8.9495
7442.0,-4.968,1.3719,9.0692
7452.0,-4.9321,1.2115,8.9711
7462.0,-4.8339,1.1564,8.6383
7472.0,-4.7333,1.1013,8.2863
7482.0,-4.8315,0.9313,8.1666
7492.0,-4.9081,0.7757,8.272
7502.0,-5.0182,0.7302,8.3342
7512.0,-5.1044,0.7135,8.4707
7522.0,-5.0757,0.7135,8.7077
7532.0,-4.8674,0.6728,8.9064
7542.0,-4.6639,0.5555,8.8729
7552.0,-4.7046,0.5531,9.0022
7562.0,-4.7238,0.51,8.9471
7572.0,-4.5753,0.4286,8.7508
7582.0,-4.4843,0.34,8.7652
7592.0,-4.6495,0.2825,8.7173
7602.0,-4.7788,0.1221,8.7364
7612.0,-4.7285,0.1269,8.8729
7622.0,-4.8674,0.1197,9.0621
7632.0,-4.7884,0.1724,9.1028
7642.0,-4.8028,0.2418,9.2081
7652.0,-4.6424,0.2753,9.074
7662.0,-4.5107,0.3208,8.9615
7672.0,-4.5562,0.2849,8.6311
7682.0,-4.616,0.3112,8.9232
7692.0,-4.3144,0.3567,8.5784
7702.0,-4.4963,0.3926,8.5329
7712.0,-4.7597,0.2849,8.7867
7722.0,-4.8842,0.2562,8.8921
7732.0,-4.8387,0.2274,9.1411
7742.0,-4.7381,0.261,9.1818
7752.0,-4.64,0.3352,9.256
7762.0,-4.5418,0.3136,9.3134
7772.0,-4.3359,0.316,9.086
7782.0,-4.1132,0.3543,8.9304
7792.0,-4.0055,0.2274,8.5856
7802.0,-4.039,0.2083,8.4467
7812.0,-4.1539,0.146,8.3127
7822.0,-4.3718,0.091,8.6287
7832.0,-4.604,0.1652,8.7724
7842.0,-4.7525,0.249,9.1219
7852.0,-5.5665,0.0503,9.6774
7862.0,-4.6639,0.1915,9.0788
7872.0,-4.3527,0.1317,9.5241
7882.0,-3.9744,0.2179,8.9591
7892.0,-4.3742,0.0551,8.9208
7902.0,-4.6735,-0.0407,8.4563
7912.0,-4.6807,-0.1293,8.3246
7922.0,-4.8004,-0.067,8.3294
7932.0,-4.944,-0.0886,8.6239
7942.0,-4.9704,0.0168,8.7149
7952.0,-4.9536,0.1604,8.8178
7962.0,-4.6591,0.249,9.0285
7972.0,-4.3862,0.3352,8.5928
7982.0,-4.1683,0.3663,8.8777
7992.0,-3.7757,0.6967,8.2648
8002.0,-3.5314,0.9409,7.9392
8012.0,-3.7589,0.8212,7.5729
8022.0,-3.8714,0.8045,7.3358
8032.0,-3.9193,0.929,7.1539
8042.0,-4.0845,0.9505,7.2664
8052.0,-4.1827,0.9242,7.4723
8062.0,-4.1515,1.0463,7.5226
8072.0,-4.0127,1.1109,7.6207
8082.0,-3.7469,1.0918,7.5609
8092.0,-3.5291,1.008,7.2975
8102.0,-3.2178,0.9816,6.9504
8112.0,-2.9425,1.0032,6.7109
8122.0,-2.5379,0.9673,6.2752
8132.0,-2.5379,1.0726,5.8538
8142.0,-2.5666,1.0558,5.6024
8152.0,-2.715,1.0822,5.5929
8162.0,-2.9592,0.984,5.7174
8172.0,-3.0981,1.0774,5.8993
8182.0,-3.0909,0.9744,5.7174
8192.0,-3.0526,1.0558,5.4013
8202.0,-2.9856,0.9505,5.193
8212.0,-2.8946,0.8715,4.9057
8222.0,-2.9353,0.8188,4.5849
8232.0,-3.0454,0.7973,4.4317
8242.0,-3.0646,0.7614,4.3622
8252.0,-3.0957,0.7374,4.6208
8262.0,-2.9185,0.8068,4.6687
8272.0,-2.7653,1.0319,4.8866
8282.0,-2.8778,1.0247,5.2768
8292.0,-2.9281,1.0175,5.387
8302.0,-3.1364,0.8954,5.6455
8312.0,-3.3615,0.7614,5.873
8322.0,-3.6823,0.7111,6.189
8332.0,-3.8714,0.6704,6.2153
8342.0,-4.0175,0.6057,6.5769
8352.0,-4.4029,0.5315,7.0294
8362.0,-4.9344,0.3208,7.9009
8372.0,-5.0685,0.1077,8.7245
8382.0,-5.0709,-0.0287,8.995
8392.0,-5.0398,0.0048,9.3661
8402.0,-5.3558,0.1604,9.9335
8412.0,-5.8179,0.4334,10.2927
8422.0,-6.2106,0.5507,10.8074
8432.0,-6.6295,0.7685,11.3772
8442.0,-6.9911,0.838,11.892
8452.0,-7.2065,0.7518,12.6318
8462.0,-7.4699,0.8954,13.6278
8472.0,-7.9033,0.8859,14.9685
8482.0,-8.2528,0.9433,15.6581
8492.0,-8.5856,1.0127,16.1968
8502.0,-8.9064,0.9768,16.3955
8512.0,-9.1794,0.6632,17.0922
8522.0,-9.481,0.589,17.9781
8532.0,-9.6367,0.51,18.6197
8542.0,-9.5433,0.4262,19.2805
8552.0,-9.4092,0.3328,19.326
8562.0,-9.4044,0.3735,19.01
8572.0,-9.8593,0.2083,19.2685
8582.0,-10.659,0.3232,20.5422
8592.0,-11.4227,0.4812,21.9931
8602.0,-12.0021,0.4573,23.1615
8612.0,-12.0213,0.4836,22.958
8622.0,-11.8345,0.3974,22.7449
8632.0,-11.4132,0.2897,22.1224
8642.0,-10.8122,0.237,21.7681
8652.0,-10.2903,0.2418,21.3802
8662.0,-10.0173,0.2322,21.2749
8672.0,-9.8354,0.1628,21.3515
8682.0,-9.1913,0.1293,21.0546
8692.0,-8.6455,0.0646,20.3579
8702.0,-8.4515,-0.2322,19.8719
8712.0,-8.4946,-0.2682,19.1081
8722.0,-8.3438,-0.3017,18.9214
8732.0,-8.3582,-0.1484,19.0602
8742.0,-8.4396,-0.1149,18.1552
8752.0,-8.2408,0.0575,17.4561
8762.0,-8.2983,0.1269,16.6852
8772.0,-8.2935,0.1341,15.9406
8782.0,-7.5729,0.2035,14.6932
8792.0,-6.9959,0.1365,13.3812
8802.0,-6.5434,-0.0287,12.0404
8812.0,-6.0023,-0.0766,10.6374
8822.0,-5.3439,-0.0239,9.4188
8832.0,-4.4676,-0.1101,8.102
8842.0,-3.6512,0.1006,7.0605
8852.0,-2.8754,0.3017,6.1435
8862.0,-2.3894,0.4764,5.1739
8872.0,-2.0494,0.5986,4.3479
8882.0,-1.6783,0.4525,3.7972
8892.0,-1.6113,0.4525,3.6823
8902.0,-1.2498,0.5866,3.6871
8912.0,-0.9601,0.6632,3.7038
8922.0,-0.4908,0.8404,3.6871
8932.0,0.2083,0.893,3.8834
8942.0,0.3903,0.9266,3.4979
8952.0,0.4597,0.9553,3.2298
8962.0,0.5962,1.0151,2.7461
8972.0,0.5076,1.0032,2.1069
8982.0,0.5291,0.7925,1.7119
8992.0,0.7254,0.5842,1.1444
9002.0,0.4669,0.5339,1.2258
9012.0,0.158,0.8116,0.9649
9022.0,-0.2155,0.6488,1.4868
9032.0,-0.8452,0.7087,1.8028
9042.0,-1.2186,0.3017,2.6025
9052.0,-0.9673,0.3352,2.3104
9062.0,-0.7829,0.2442,2.3798
9072.0,-0.3687,0.1532,2.1069
9082.0,-0.5171,0.1652,1.6209
9092.0,-0.4094,0.2298,1.1229
9102.0,-0.1269,0.1293,0.996
9112.0,0.431,-0.1604,0.9936
9122.0,0.5171,-0.1197,1.1803
9132.0,0.0886,0.0551,1.1971
9142.0,-0.3256,0.17,1.4389
9152.0,-0.5555,0.146,1.4246
9162.0,-0.5483,0.2155,1.506
9172.0,-0.2825,0.2131,1.3479
9182.0,-0.0144,0.2801,1.1253
9192.0,0.2298,0.3448,0.7781
9202.0,0.3879,0.2682,0.5818
9212.0,0.2849,0.2969,0.7135
9222.0,-0.0766,0.1341,1.0391
9232.0,-0.3256,0.012,1.2402
9242.0,-0.5531,-0.0599,1.5395
9252.0,-0.6249,0.0551,1.7861
9262.0,-0.68,0.146,1.8411
9272.0,-0.656,0.2035,1.9609
9282.0,-0.6033,0.2658,1.8699
9292.0,-0.7446,0.2131,1.743
9302.0,-0.5746,0.1891,1.4222
9312.0,-0.565,0.1101,1.5036
9322.0,-0.6776,0.1915,1.4078
9332.0,-0.9792,0.182,1.6712
9342.0,-1.324,0.2897,2.0399
9352.0,-1.4246,0.316,2.308
9362.0,-1.7119,0.3926,3.0263
9372.0,-1.4653,0.5363,2.988
9382.0,-1.6783,0.6249,4.0031
9392.0,-1.5036,1.2115,5.1451
9402.0,-1.64,1.4964,6.3063
9412.0,-2.2769,1.5682,8.2337
9422.0,-2.8754,1.415,8.3222
9432.0,-3.9217,0.8691,7.513
9442.0,-4.0223,0.9266,8.1283
9452.0,-3.7733,1.1037,9.426
9462.0,-3.0358,1.5706,10.9104
9472.0,-2.5379,2.0016,12.5336
9482.0,-2.4134,2.2003,13.9414
9492.0,-3.3639,2.0231,15.6222
9502.0,-4.5825,1.7286,16.9486
9512.0,-5.964,1.7837,17.3987
9522.0,-6.8402,1.6927,17.1233
9532.0,-6.4955,1.901,16.0412
9542.0,-6.213,1.8962,15.2008
9552.0,-6.1292,1.9201,14.5927
9562.0,-7.2377,1.8148,15.3229
9572.0,-8.9184,1.2043,16.6469
9582.0,-10.2089,0.9242,18.2414
9592.0,-10.5872,1.0726,19.4337
9602.0,-9.4308,1.5107,20.0131
9612.0,-7.4915,2.2051,19.3882
9622.0,-6.0861,2.6001,17.7482
9632.0,-5.7724,2.2482,16.3668
9642.0,-5.8059,1.8411,15.1625
9652.0,-6.3566,1.5514,14.9709
9662.0,-7.4867,1.4317,15.6964
9672.0,-8.442,1.3647,16.4434
9682.0,-9.1913,1.585,17.1066
9692.0,-9.7348,1.7047,17.6237
9702.0,-9.9311,1.6448,17.2143
9712.0,-9.742,1.6664,16.4314
9722.0,-9.1075,1.7047,15.2582
9732.0,-8.2289,1.7238,13.9678
9742.0,-7.2449,1.6161,12.402
9752.0,-6.5577,1.4988,11.4132
9762.0,-6.1531,1.3288,11.0205
9772.0,-6.2034,1.2761,11.3916
9782.0,-6.0573,1.403,11.7053
9792.0,-5.9304,1.494,11.8824
9802.0,-5.5258,1.5395,11.5975
9812.0,-5.387,1.2809,10.92
9822.0,-5.2816,1.2139,10.4387
9832.0,-5.0949,0.9218,9.9048
9842.0,-4.7573,0.7781,9.5624
9852.0,-4.5394,0.6416,9.2201
9862.0,-4.4317,0.5794,8.9639
9872.0,-3.8906,0.6967,8.1762
9882.0,-3.4046,0.8835,7.8075
9892.0,-3.0742,0.9242,7.5944
9902.0,-2.9832,0.8308,7.865
9912.0,-3.2801,0.8859,7.9918
9922.0,-3.6847,0.9002,8.2959
9932.0,-4.0677,0.7805,8.351
9942.0,-4.027,0.7638,8.2672
9952.0,-3.735,0.747,7.6327
9962.0,-3.1077,0.6895,7.1754
9972.0,-2.5738,0.7207,6.766
9982.0,-2.6959,0.6608,6.9432
9992.0,-3.3375,0.6153,7.3741
10002.0,-3.8858,0.8475,7.683
10012.0,-4.3503,0.9074,8.272
10022.0,-4.2665,1.0726,8.5066
10032.0,-4.1827,1.2402,8.8274
10042.0,-3.7757,1.4892,8.5904
10052.0,-3.3016,1.5083,8.2768
10062.0,-3.0071,1.3455,8.0086
10072.0,-3.0526,1.233,7.4268
10082.0,-3.2992,1.2641,7.3071
10092.0,-3.5889,1.2498,7.5393
10102.0,-3.8666,1.3168,7.7931
10112.0,-4.0749,1.3862,7.9918
10122.0,-3.9816,1.5395,8.1044
10132.0,-3.9385,1.5443,8.4587
10142.0,-4.2521,1.5682,8.9088
10152.0,-4.5418,1.5874,9.3111
10162.0,-4.8387,1.5634,9.6175
10172.0,-4.8578,1.4964,9.2847
10182.0,-4.7669,1.6041,8.7747
10192.0,-4.6232,1.7334,8.2648
10202.0,-4.4891,1.8459,7.8195
10212.0,-4.4652,1.6879,7.6758
10222.0,-4.4365,1.7597,7.999
10232.0,-4.6687,1.7454,8.4228
10242.0,-5.1691,1.9201,8.9639
10252.0,-5.3846,2.0063,9.4858
10262.0,-5.4827,2.0782,9.5864
10272.0,-5.3654,2.0375,9.5672
10282.0,-5.1547,2.0159,9.256
10292.0,-4.8483,1.8794,8.8562
10302.0,-4.8794,1.8962,8.5904
10312.0,-4.8914,1.81,8.1666
10322.0,-5.0661,1.8842,8.0134
10332.0,-5.1236,1.7741,8.0828
10342.0,-5.1451,1.8579,8.2576
10352.0,-5.2625,1.7645,8.5234
10362.0,-5.4181,1.6712,8.8585
10372.0,-5.6599,1.6257,9.0692
10382.0,-5.6288,1.561,9.1459
10392.0,-5.4779,1.5826,9.0668
10402.0,-5.4923,1.4557,8.9423
10412.0,-5.3774,1.5993,8.5976
10422.0,-5.387,1.5251,8.2672
10432.0,-5.5474,1.5419,8.1379
10442.0,-5.7269,1.4006,8.1762
10452.0,-5.8514,1.2929,8.4563
10462.0,-5.7317,1.2019,8.5353
10472.0,-5.4899,1.1899,8.6191
10482.0,-5.2074,1.166,8.7963
10492.0,-4.8291,1.1013,8.9232
10502.0,-4.5059,1.0654,9.0142
10512.0,-4.4891,1.1492,9.007
10522.0,-4.7357,1.166,9.165
10532.0,-5.0973,1.0822,9.0812
10542.0,-5.4995,0.8667,9.2536
10552.0,-5.6647,0.7111,9.3039
10562.0,-5.3582,0.5962,9.3733
10572.0,-4.9057,0.5459,9.4667
10582.0,-4.4365,0.5794,9.6534
10592.0,-4.0582,0.6728,9.7276
10602.0,-3.8571,0.7614,9.6893
10612.0,-3.9049,0.7973,9.7037
10622.0,-3.8882,0.9026,9.4068
10632.0,-4.0414,0.8356,9.1937
10642.0,-4.3263,0.838,9.1123
10652.0,-4.7525,0.7661,9.5912
10662.0,-5.0901,0.7207,9.8474
10672.0,-5.0853,0.6991,10.003
10682.0,-4.9368,0.6608,9.8497
10692.0,-4.7788,0.5698,9.7683
10702.0,-4.367,0.4693,9.5792
10712.0,-3.9696,0.407,9.2895
10722.0,-3.8499,0.4453,9.0908
10732.0,-3.711,0.5267,8.9902
10742.0,-3.6272,0.5818,8.8083
10752.0,-3.6727,0.5914,8.7484
10762.0,-3.7517,0.6033,8.8466
10772.0,-3.8954,0.6177,9.0429
10782.0,-4.0845,0.6776,9.1937
10792.0,-4.1515,0.6656,9.4332
10802.0,-4.1683,0.565,9.5122
10812.0,-3.9002,0.6345,9.3901
10822.0,-3.8235,0.6057,9.2751
10832.0,-3.8068,0.6416,8.9735
10842.0,-3.8068,0.6608,8.8202
10852.0,-3.8547,0.6273,8.7508
10862.0,-3.8882,0.6129,8.9519
10872.0,-4.0175,0.5483,9.1937
10882.0,-4.0247,0.5315,9.2919
10892.0,-3.9959,0.5722,9.5505
10902.0,-3.8547,0.5938,9.4882
10912.0,-4.0055,0.6752,9.4954
10922.0,-4.1324,0.7446,9.505
10932.0,-4.0654,0.7039,9.7659
10942.0,-3.96,0.8356,9.6319
10952.0,-3.9265,0.8356,9.5265
10962.0,-3.8475,0.8404,9.3278
10972.0,-3.8283,0.8068,9.1195
10982.0,-3.9313,0.7733,9.0261
10992.0,-3.9887,0.8763,8.9735
11002.0,-4.379,0.8667,8.9232
11012.0,-5.0518,0.8045,9.0309
11022.0,-5.7102,0.838,9.2344
11032.0,-5.8945,0.9553,9.3829
11042.0,-5.4803,1.166,9.2608
11052.0,-5.0326,1.3479,9.0237
11062.0,-4.6711,1.3719,8.7221
11072.0,-4.4843,1.4102,8.5832
11082.0,-4.5705,1.3743,8.4779
11092.0,-4.5777,1.4126,8.4994
11102.0,-4.5586,1.4796,8.7891
11112.0,-4.5298,1.5826,8.9256
11122.0,-4.4867,1.7023,8.7125
11132.0,-4.549,1.664,8.6838
11142.0,-4.6448,1.5874,8.5042
11152.0,-4.4341,1.7071,8.5066
11162.0,-4.2377,1.6448,8.3653
11172.0,-4.063,1.7238,8.2145
11182.0,-4.2234,1.7238,8.193
11192.0,-4.367,1.7621,8.5138
11202.0,-4.6711,1.9321,8.9112
11212.0,-4.9608,2.059,9.2632
11222.0,-5.2768,2.0949,9.4188
11232.0,-5.6312,1.9369,9.3565
11242.0,-5.8778,1.8292,9.3087
11252.0,-5.928,1.6688,9.2919
11262.0,-5.9735,1.5538,9.1339
11272.0,-5.7221,1.4724,9.0692
11282.0,-5.2194,1.47,8.9256
11292.0,-4.7716,1.5467,8.8633
11302.0,-4.5777,1.5538,8.679
11312.0,-4.4125,1.5012,8.8849
11322.0,-4.2353,1.4868,8.679
11332.0,-4.2042,1.4724,8.8921
11342.0,-4.2593,1.5227,8.9591
11352.0,-4.4149,1.4509,9.0261
11362.0,-4.6304,1.391,9.1219
11372.0,-4.6519,1.2905,8.9447
11382.0,-4.5514,1.2378,8.9112
11392.0,-4.549,1.2019,8.904
11402.0,-4.6471,1.2186,8.837
11412.0,-4.5538,1.2426,8.9423
11422.0,-4.4652,1.3336,8.9112
11432.0,-4.4341,1.3671,9.1411
11442.0,-4.379,1.47,9.2177
11452.0,-4.3598,1.4246,9.1961
11462.0,-4.2832,1.4389,9.1554
11472.0,-4.3934,1.5251,9.1435
11482.0,-4.4269,1.4748,9.0453
11492.0,-4.2449,1.6137,8.9376
11502.0,-4.3431,1.6496,8.77
11512.0,-4.3383,1.6448,8.7963
11522.0,-4.3742,1.5969,8.8969
11532.0,-4.3981,1.6305,9.0022
11542.0,-4.5011,1.6616,9.1578
11552.0,-4.6615,1.6328,9.2608
11562.0,-4.7357,1.6305,9.4715
11572.0,-4.7549,1.743,9.3925
11582.0,-4.7046,1.7382,9.5888
11592.0,-4.8004,1.7837,9.3972
11602.0,-4.774,1.7382,9.3733
11612.0,-4.7309,1.7526,9.1818
11622.0,-4.7381,1.7286,9.0716
11632.0,-4.6831,1.731,9.0046
11642.0,-4.8459,1.6568,9.1578
11652.0,-5.102,1.6161,9.2967
11662.0,-5.1284,1.6688,9.3039
11672.0,-5.2457,1.5897,9.4547
11682.0,-5.2816,1.561,9.56
11692.0,-5.1212,1.5131,9.5553
11702.0,-4.8914,1.4413,9.4475
11712.0,-4.7525,1.4222,9.2392
11722.0,-4.7262,1.4174,9.2991
11732.0,-4.8746,1.3168,9.1051
11742.0,-4.8961,1.1636,9.0333
11752.0,-4.8866,1.0463,8.9998
11762.0,-4.8674,0.8739,8.5808
11772.0,-5.0015,0.7326,8.5018
11782.0,-5.2218,0.5866,8.3222
11792.0,-5.4947,0.4669,8.2911
11802.0,-5.6288,0.4405,8.1068
11812.0,-5.5115,0.4645,8.1475
11822.0,-5.3151,0.4645,8.2911
11832.0,-5.0829,0.5459,8.2887
11842.0,-4.8195,0.5531,8.3151
11852.0,-4.7046,0.4669,8.2073
11862.0,-4.5945,0.4669,8.1403
11872.0,-4.5298,0.4741,8.1618
11882.0,-4.3646,0.5028,8.2576
11892.0,-4.209,0.5459,8.1977
11902.0,-4.1132,0.5746,8.2983
11912.0,-4.1037,0.5818,8.2791
11922.0,-4.1515,0.5578,8.3917
11932.0,-4.1348,0.5339,8.4827
11942.0,-4.2569,0.486,8.5712
11952.0,-4.3096,0.6823,8.4204
11962.0,-4.4532,0.6033,8.5545
11972.0,-4.4532,0.7326,8.5425
11982.0,-4.2976,0.814,8.5904
11992.0,-4.0725,0.8691,8.5808
12002.0,-3.644,0.8547,8.3941
12012.0,-3.1125,0.9026,8.0996
12022.0,-2.6264,0.9146,7.7285
12032.0,-2.3367,0.8978,7.446
12042.0,-2.32,0.8284,7.276
12052.0,-2.4014,0.7829,7.1635
12062.0,-2.49,0.7805,7.0916
12072.0,-2.5546,0.8739,7.0366
12082.0,-2.5522,1.0104,6.7133
12092.0,-2.6025,1.0463,6.5769
12102.0,-2.5905,1.0774,6.4117
12112.0,-2.6193,1.1181,6.4452
12122.0,-2.7773,1.0558,6.5003
12132.0,-2.8802,1.1157,6.6391
12142.0,-3.1508,1.2689,6.8187
12152.0,-3.3351,1.4078,6.8809
12162.0,-3.5698,1.4868,7.0246
12172.0,-3.5698,1.6376,6.8426
12182.0,-3.3615,1.8148,6.5481
12192.0,-3.1364,1.6759,6.1818
12202.0,-2.9281,1.5634,5.8155
12212.0,-2.8994,1.3743,5.7317
12222.0,-2.9568,1.2641,5.8035
12232.0,-3.055,1.1947,6.0286
12242.0,-3.6943,1.2617,6.5984
12252.0,-4.0965,1.2785,7.1084
12262.0,-4.3527,1.2067,7.6782
12272.0,-4.3551,1.233,7.8099
12282.0,-4.2832,1.2115,7.9775
12292.0,-4.0773,1.1181,7.5489
12302.0,-3.8092,0.984,7.1036
12312.0,-3.6655,0.8475,6.8546
12322.0,-3.893,0.7709,6.8809
12332.0,-4.2617,0.5363,7.1347
12342.0,-4.458,0.5004,7.3885
12352.0,-4.5657,0.4142,7.5992
12362.0,-4.6687,0.3926,7.8769
12372.0,-4.81,0.5148,8.0421
12382.0,-4.8076,0.5363,8.169
12392.0,-4.8578,0.6776,8.3653
12402.0,-4.8171,0.8356,8.3606
12412.0,-4.8674,0.9146,8.1882
12422.0,-5.2625,0.9601,8.5401
12432.0,-5.6407,0.9361,8.9423
12442.0,-5.9041,1.0726,9.3661
12452.0,-6.3351,1.063,10.4172
12462.0,-6.6583,1.0846,11.0852
12472.0,-6.9025,0.9529,11.5808
12482.0,-7.2425,0.7853,11.8082
12492.0,-7.6806,0.723,12.4139
12502.0,-7.7045,0.826,12.5169
12512.0,-7.6543,1.0367,12.7204
12522.0,-7.7189,1.1396,12.955
12532.0,-8.2073,1.2186,13.7978
12542.0,-8.8849,1.2258,15.0284
12552.0,-9.9766,1.1492,16.6517
12562.0,-10.829,1.0822,18.0834
12572.0,-11.497,0.9457,19.4936
12582.0,-11.5329,1.1516,19.9102
12592.0,-11.9782,1.0367,20.7122
12602.0,-12.208,1.1779,21.4209
12612.0,-12.6055,1.0511,21.8615
12622.0,-12.8904,1.1133,22.3187
12632.0,-13.0891,1.1875,22.8981
12642.0,-13.3596,1.2426,23.6595
12652.0,-13.2758,1.4509,24.6004
12662.0,-13.1154,1.2977,25.0386
12672.0,-12.8138,1.3743,24.7417
12682.0,-12.5289,1.2857,24.44
12692.0,-11.8393,1.4676,23.9157
12702.0,-11.5712,1.4174,23.7146
12712.0,-11.4084,1.233,23.7744
12722.0,-11.1713,1.0534,23.4081
12732.0,-10.738,1.1995,23.1615
12742.0,-9.9623,1.3072,22.144
12752.0,-8.8873,1.4054,20.3244
12762.0,-7.9272,1.0822,18.5455
12772.0,-6.7469,0.8021,16.9174
12782.0,-5.5162,0.6297,14.8632
12792.0,-4.3814,0.4142,13.2567
12802.0,-3.055,0.5363,11.7268
12812.0,-2.7605,0.2658,10.4196
12822.0,-2.1356,0.3974,8.9088
12832.0,-1.4964,0.4477,7.4651
12842.0,-1.1947,0.6871,6.1268
12852.0,-1.2019,1.0008,4.9967
12862.0,-1.2977,1.1253,4.1707
12872.0,-1.5179,1.1301,3.4955
12882.0,-1.5395,0.6464,2.9353
12892.0,-1.3767,0.1173,2.8276
12902.0,-1.2067,-0.1077,3.3615
12912.0,-0.5818,0.0958,3.7685
12922.0,-0.0168,0.1149,4.4221
12932.0,0.1149,0.4142,4.5538
12942.0,-0.3017,0.3304,4.5394
12952.0,-0.4764,0.1772,3.8738
12962.0,-0.7254,-0.0479,2.466
12972.0,-0.2514,0.1413,0.6608
12982.0,0.6273,0.4477,-0.2298
12992.0,0.3879,0.2394,0.6416
13002.0,-0.158,0.486,-2.0135
13012.0,-1.1492,0.4334,0.1748
13022.0,-2.6624,-0.3974,0.9146
13032.0,-3.3399,-0.7374,1.0846
13042.0,-2.6935,-0.5315,2.2553
13052.0,-1.4413,-0.079,1.822
13062.0,-0.7087,0.1987,2.1907
13072.0,0.2945,0.3448,1.4317
13082.0,0.7614,0.4477,1.1133
13092.0,0.7159,0.328,1.1205
13102.0,0.3208,0.1724,1.2306
13112.0,-0.2921,0.0814,1.7478
13122.0,-0.7183,-0.0215,1.9082
13132.0,-1.0319,0.0982,2.162
13142.0,-0.9864,0.1724,2.1261
13152.0,-0.8116,0.2322,1.9752
13162.0,-0.4429,0.249,1.4222
13172.0,-0.1101,0.3615,1.0415
13182.0,0.2227,0.3352,0.5219
13192.0,0.0886,0.1293,0.328
13202.0,0.1772,0.0742,0.644
13212.0,0.0814,0.0934,0.8619
13222.0,-0.1317,0.067,1.0511
13232.0,-0.2705,0.1652,1.4293
13242.0,-0.3807,0.1772,1.5706
13252.0,-0.4597,0.1939,1.6592
13262.0,-0.6009,0.2682,1.8028
13272.0,-0.6895,0.3735,1.5203
13282.0,-0.8284,0.3184,1.3288
13292.0,-0.8595,0.3496,1.2115
13302.0,-0.7278,0.3879,1.0175
13312.0,-0.7159,0.3783,1.1444
13322.0,-0.723,0.6608,1.0558
13332.0,-0.8021,0.7973,0.838
13342.0,-1.3599,0.4741,1.5083
13352.0,-1.6065,0.3496,1.7933
13362.0,-1.6185,0.3639,1.8651
13372.0,-1.7214,0.4334,2.4086
13382.0,-1.6185,0.6632,2.2865
13392.0,-1.7047,0.9026,2.308
13402.0,-1.901,1.2139,2.2745
13412.0,-2.399,1.4724,2.9329
13422.0,-2.9401,1.2139,3.6033
13432.0,-3.8235,0.723,5.6886
13442.0,-5.2002,1.3695,7.4939
13452.0,-7.3334,1.2522,8.9663
13462.0,-7.6734,0.6991,8.9088
13472.0,-5.7604,1.2713,8.169
13482.0,-3.7062,0.091,7.5968
13492.0,-4.1037,0.3472,12.8377
13502.0,-3.6631,0.4142,12.2655
13512.0,-4.0294,0.9361,14.1928
13522.0,-4.6352,0.419,16.5751
13532.0,-5.4444,1.1157,18.0882
13542.0,-6.9911,1.2905,18.5431
13552.0,-7.7189,1.5419,18.3085
13562.0,-8.157,1.5395,18.081
13572.0,-8.0541,1.245,17.3077
13582.0,-7.2065,1.1899,17.018
13592.0,-6.3087,1.4796,17.0252
13602.0,-6.1028,1.7693,18.4114
13612.0,-5.8131,1.7885,19.1728
13622.0,-5.5378,1.4198,19.757
13632.0,-5.794,0.8811,19.7426
13642.0,-5.8921,0.4022,19.3332
13652.0,-6.3566,0.6321,18.2941
13662.0,-8.0756,0.8523,18.354
13672.0,-9.2488,1.5467,18.2414
13682.0,-9.4715,1.9656,18.184
13692.0,-9.3613,1.7837,18.2558
13702.0,-9.3637,1.6855,18.4784
13712.0,-9.5361,1.6712,17.9852
13722.0,-9.8043,1.6089,16.7834
13732.0,-9.6295,1.6089,15.263
13742.0,-9.4116,1.5538,14.3796
13752.0,-8.4156,1.4581,13.2902
13762.0,-7.3622,1.4916,12.39
13772.0,-6.6894,1.3408,12.1961
13782.0,-6.0645,1.2234,12.0979
13792.0,-5.8299,1.2043,12.2751
13802.0,-5.7461,1.0175,12.208
13812.0,-6.3398,0.9481,12.3684
13822.0,-6.8761,1.0223,12.0955
13832.0,-6.9599,0.9385,11.564
13842.0,-6.9168,0.984,11.0732
13852.0,-6.5194,0.7135,10.0485
13862.0,-5.4875,0.6656,9.165
13872.0,-4.3144,0.5363,7.9655
13882.0,-3.4046,0.4381,7.288
13892.0,-3.2346,0.4094,7.2065
13902.0,-3.4285,0.2658,7.343
13912.0,-3.462,0.2251,7.1539
13922.0,-3.6799,0.2825,7.1826
13932.0,-3.9528,0.3472,7.3598
13942.0,-3.8259,0.2514,7.4843
13952.0,-3.4285,0.0503,7.5465
13962.0,-3.0861,-0.1149,7.4388
13972.0,-2.9449,-0.2514,7.0342
13982.0,-2.9784,-0.2729,6.7277
13992.0,-3.201,-0.3328,6.3829
14002.0,-3.5434,-0.2825,6.5314
14012.0,-3.8858,-0.1867,6.6559
14022.0,-4.2665,-0.1053,7.2329
14032.0,-4.4891,0.0239,7.8051
14042.0,-4.3096,0.0886,8.078
14052.0,-3.9959,0.3065,8.339
14062.0,-3.7206,0.3903,8.5162
14072.0,-3.3615,0.4717,8.4276
14082.0,-3.3567,0.2753,8.4659
14092.0,-3.5291,-0.0144,8.4898
14102.0,-3.8642,-0.0742,8.6167
14112.0,-4.5203,-0.0168,9.3925
14122.0,-4.8459,0.012,10.0437
14132.0,-5.0733,0.2466,10.4244
14142.0,-5.363,0.3926,10.5584
14152.0,-5.296,0.3639,10.9152
14162.0,-4.9129,0.3591,11.0038
14172.0,-4.5394,0.2634,11.1187
14182.0,-3.8642,0.2107,11.2623
14192.0,-3.3758,0.1772,11.2839
14202.0,-3.1867,-0.0383,11.1953
14212.0,-3.5147,-0.3663,10.9247
14222.0,-4.1563,-0.4238,10.8577
14232.0,-4.4987,-0.1748,10.6063
14242.0,-4.7788,-0.0479,10.6159
14252.0,-4.5538,0.1724,10.4483
14262.0,-3.9289,0.3974,10.3382
14272.0,-3.3184,0.5818,9.9048
14282.0,-2.794,0.7254,9.5672
14292.0,-2.5379,0.8571,9.5529
14302.0,-2.5163,1.0654,9.6726
14312.0,-2.4134,1.0989,9.7492
14322.0,-2.648,1.1444,9.7564
14332.0,-2.7246,1.2426,9.5864
14342.0,-2.6217,1.312,9.268
14352.0,-2.6983,1.2905,9.1028
14362.0,-2.7797,1.2953,8.8945
14372.0,-2.8659,1.2857,8.7364
14382.0,-3.0765,1.2402,8.8753
14392.0,-3.4261,1.2474,9.0501
14402.0,-3.6392,1.1588,9.0644
14412.0,-3.6871,1.1301,9.086
14422.0,-3.6799,1.0439,9.1387
14432.0,-3.5506,1.0942,9.3134
14442.0,-3.5434,1.1612,9.2536
14452.0,-3.4237,1.1684,9.1722
14462.0,-3.2848,1.2234,9.1435
14472.0,-3.3447,1.2139,8.9926
14482.0,-3.3471,1.1875,8.6981
14492.0,-3.2513,1.221,8.4228
14502.0,-3.3327,1.1851,8.442
14512.0,-3.3447,1.1468,8.5665
14522.0,-3.4237,1.2929,8.7508
14532.0,-3.5243,1.3575,9.1195
14542.0,-3.4117,1.3791,9.4739
14552.0,-3.4333,1.391,9.5481
14562.0,-3.3567,1.3216,9.4763
14572.0,-3.3662,1.0199,9.3326
14582.0,-3.2154,0.9601,8.9399
14592.0,-3.1053,0.8643,8.7508
14602.0,-3.1915,0.8092,8.6526
14612.0,-3.2585,0.8332,8.7819
14622.0,-3.3447,0.9649,8.9064
14632.0,-3.4093,0.929,9.1411
14642.0,-3.4524,0.9601,9.517
14652.0,-3.6703,0.893,9.6438
14662.0,-3.8571,0.7518,9.6438
14672.0,-4.0534,0.6177,9.5505
14682.0,-3.9696,0.5363,9.4858
14692.0,-3.8235,0.5291,9.3565
14702.0,-3.474,0.6321,9.1937
14712.0,-3.1101,0.5195,9.256
14722.0,-2.9185,0.4166,9.2081
14732.0,-3.0358,0.2945,9.6438
14742.0,-2.7485,0.1484,9.2751
14752.0,-2.5139,0.2418,9.7276
14762.0,-2.5331,0.4214,9.8593
14772.0,-3.0239,0.51,9.8665
14782.0,-3.4668,0.498,10.003
14792.0,-3.644,0.5411,10.1969
14802.0,-3.541,0.6345,9.8809
14812.0,-3.3447,0.6967,9.8976
14822.0,-3.2298,0.838,9.8067
14832.0,-3.3567,0.8092,9.8426
14842.0,-3.383,0.8475,9.8282
14852.0,-3.2801,0.7829,9.8857
14862.0,-3.1244,0.814,9.9814
14872.0,-3.146,0.8188,9.9311
14882.0,-3.1125,0.6728,9.9958
14892.0,-3.0263,0.6057,10.0892
14902.0,-2.9784,0.6153,10.161
14912.0,-2.7964,0.6249,10.0389
14922.0,-2.7318,0.7039,9.9551
14932.0,-2.7318,0.5555,9.7229
14942.0,-2.624,0.51,9.2823
14952.0,-2.8587,0.4908,9.4332
14962.0,-2.9401,0.5148,9.4116
14972.0,-3.2178,0.5866,9.6438
14982.0,-3.5099,0.6512,9.8426
14992.0,-3.5338,0.6776,10.1969
15002.0,-3.5267,0.7302,10.4148
15012.0,-3.5267,0.996,10.3956
15022.0,-3.3351,0.996,10.2304
15032.0,-3.0215,1.1325,9.8162
15042.0,-2.5139,0.8643,8.5952
15052.0,-3.1005,1.1396,8.7149
15062.0,-4.1108,0.8045,9.6606
15072.0,-4.4436,0.9649,9.8737
15082.0,-4.5083,0.8356,9.9766
15092.0,-4.0414,1.2186,9.5481
15102.0,-3.7733,1.3551,9.7061
15112.0,-3.4884,1.3455,9.6127
15122.0,-3.3447,1.4557,9.7995
15132.0,-3.3662,1.561,9.6582
15142.0,-3.4237,1.4748,9.3446
15152.0,-3.1292,1.5083,9.0692
15162.0,-3.0957,1.4485,8.849
15172.0,-3.2322,1.5682,8.7867
15182.0,-3.6512,1.5993,9.0381
15192.0,-4.1492,1.6879,9.2416
15202.0,-4.4365,1.81,9.4499
15212.0,-4.8076,1.7023,9.8354
15222.0,-5.0087,1.6688,10.0724
15232.0,-4.8411,1.6999,10.1514
15242.0,-4.6495,1.7454,10.0173
15252.0,-4.3718,1.6807,9.6822
15262.0,-3.96,1.6209,9.1219
15272.0,-3.6368,1.6472,8.8514
15282.0,-3.3279,1.6448,8.4659
15292.0,-3.1603,1.7789,8.4132
15302.0,-3.0622,1.7645,8.4587
15312.0,-3.1963,1.8316,8.6574
15322.0,-3.316,1.9417,8.8418
15332.0,-3.5291,1.9752,9.0621
15342.0,-3.7469,1.9489,9.3805
15352.0,-4.0055,1.9704,9.6343
15362.0,-4.2114,2.0997,9.7659
15372.0,-4.0654,1.9393,9.8521
15382.0,-3.8188,1.901,9.6726
15392.0,-3.565,1.8914,9.5696
15402.0,-3.3303,1.8076,9.347
15412.0,-3.3232,1.8076,9.2009
15422.0,-3.3782,1.7454,9.1028
15432.0,-3.6129,1.7454,9.2632
15442.0,-3.7373,1.7789,9.5241
15452.0,-3.802,1.7837,9.7372
15462.0,-3.7445,1.8699,9.7588
15472.0,-3.5674,1.8483,9.5313
15482.0,-3.4381,1.8818,9.1866
15492.0,-3.3064,1.8842,9.0094
15502.0,-3.2753,1.7861,8.6862
15512.0,-3.3662,1.8364,8.6574
15522.0,-3.45,1.9058,8.8849
15532.0,-3.4285,1.8794,9.0549
15542.0,-3.371,1.9513,9.244
15552.0,-3.4572,1.9656,9.6798
15562.0,-3.6129,1.9944,9.8569
15572.0,-3.7948,1.9824,9.7923
15582.0,-3.62,1.9393,9.6438
15592.0,-3.4141,1.8675,9.2727
15602.0,-3.2322,1.8842,8.9471
15612.0,-3.1101,1.9393,8.9639
15622.0,-3.0765,2.0111,9.0788
15632.0,-3.0598,2.0207,8.9854
15642.0,-3.1173,1.9992,9.3134
15652.0,-3.2082,1.9345,9.5074
15662.0,-3.2968,1.8794,9.651
15672.0,-3.4046,1.8771,9.9527
15682.0,-3.4931,1.9968,9.991
15692.0,-3.4836,1.9058,9.809
15702.0,-3.4093,1.8387,9.3996
15712.0,-3.237,1.7454,9.098
15722.0,-3.3806,1.6257,9.1363
15732.0,-3.5243,1.494,9.1482
15742.0,-3.6607,1.5036,9.0477
15752.0,-3.7469,1.3886,9.1506
15762.0,-3.9456,1.312,9.2177
15772.0,-4.1204,1.3192,9.505
15782.0,-4.3144,1.3455,9.596
15792.0,-4.3072,1.3431,9.7444
15802.0,-3.9696,1.3216,9.4236
15812.0,-3.6176,1.3001,9.1435
15822.0,-3.395,1.3168,8.916
15832.0,-3.5003,1.2977,8.7532
15842.0,-3.5913,1.2641,8.8107
15852.0,-3.6919,1.2713,9.1195
15862.0,-3.8571,1.2809,9.3565
15872.0,-4.0175,1.4293,9.4858
15882.0,-4.0318,1.4054,9.4906
15892.0,-4.0701,1.2977,9.2057
15902.0,-4.0438,1.1851,9.0932
15912.0,-3.7613,1.0846,8.6431
15922.0,-3.6296,0.9673,8.4898
15932.0,-3.5961,0.8021,8.5617
15942.0,-3.4524,0.8643,8.5617
15952.0,-3.3998,0.8116,8.4946
15962.0,-3.3902,0.8164,8.576
15972.0,-3.3591,0.8859,8.3941
15982.0,-3.4213,0.9529,8.272
15992.0,-3.3279,0.9026,8.0661
16002.0,-3.0287,0.9481,7.7668
16012.0,-2.9113,0.8619,7.4675
16022.0,-3.0742,0.8428,7.2688
16032.0,-3.201,0.905,7.0773
16042.0,-3.5314,0.8236,7.1036
16052.0,-3.7062,0.8499,7.264
16062.0,-3.8403,0.8763,7.1706
16072.0,-3.7014,0.6656,7.1515
16082.0,-3.4285,0.5626,6.9552
16092.0,-3.1508,0.5411,6.8235
16102.0,-3.1963,0.4597,6.7612
16112.0,-3.3447,0.3711,6.79
16122.0,-3.5075,0.3567,6.7995
16132.0,-3.7134,0.2442,6.5601
16142.0,-3.8523,0.1796,6.5242
16152.0,-3.7469,0.1125,6.1938
16162.0,-3.3974,0.1101,5.9376
16172.0,-3.1939,0.0742,5.77
16182.0,-3.1747,0.0096,5.6551
16192.0,-3.3016,0.0335,5.8634
16202.0,-3.6129,-0.0144,6.1914
16212.0,-3.8092,0.0144,6.3686
16222.0,-3.8164,-0.0718,6.5553
16232.0,-3.6559,-0.1532,6.5673
16242.0,-3.5147,-0.1341,6.3255
16252.0,-3.3399,-0.0287,6.1004
16262.0,-3.2202,0.0287,6.2824
16272.0,-3.2992,0.1149,6.541
16282.0,-3.7086,0.1341,7.0605
16292.0,-3.9169,0.1365,7.252
16302.0,-4.039,0.1053,7.5968
16312.0,-4.0151,0.1556,7.6351
16322.0,-3.9361,0.1077,7.7788
16332.0,-3.8834,0.079,7.7524
16342.0,-4.2689,0.0359,8.3582
16352.0,-4.6807,0.1652,9.0022
16362.0,-5.1332,0.2346,9.7755
16372.0,-5.4492,0.2801,9.9982
16382.0,-5.612,0.3687,9.9096
16392.0,-5.6719,0.4525,9.5241
16402.0,-5.7676,0.5195,9.3446
16412.0,-5.8179,0.7973,9.6654
16422.0,-6.1244,0.9505,10.4196
16432.0,-6.5984,0.9433,10.908
16442.0,-7.1515,0.6608,11.4563
16452.0,-7.4962,0.3543,11.9088
16462.0,-7.683,0.2562,12.5073
16472.0,-7.6327,0.4645,12.5935
16482.0,-7.7045,0.5076,12.4786
16492.0,-8.09,0.5243,12.1266
16502.0,-8.5186,0.3112,12.0261
16512.0,-8.5904,0.1508,12.0931
16522.0,-8.4922,0.0168,12.3277
16532.0,-8.3366,-0.0622,12.5528
16542.0,-8.3007,0.0048,13.1897
16552.0,-8.3821,0.1245,13.6924
16562.0,-8.5042,0.3472,14.3461
16572.0,-8.3725,0.431,14.7818
16582.0,-8.2432,0.5818,14.6477
16592.0,-8.2648,0.5698,15.0284
16602.0,-8.3534,0.5938,15.3516
16612.0,-8.6814,0.6584,16.1944
16622.0,-9.2656,0.8404,17.5854
16632.0,-10.0126,1.0295,19.5032
16642.0,-10.398,1.2881,20.7577
16652.0,-10.8769,1.4844,21.0809
16662.0,-11.1977,1.4485,21.3491
16672.0,-11.0061,1.4222,21.3012
16682.0,-11.1929,1.6113,21.8615
16692.0,-11.71,1.7166,22.709
16702.0,-12.5289,1.7358,23.7218
16712.0,-13.2591,1.8196,24.2126
16722.0,-13.5703,2.0853,24.0114
16732.0,-13.1106,2.4565,23.1471
16742.0,-12.4044,2.4636,22.381
16752.0,-11.1905,2.3798,21.1576
16762.0,-10.6734,2.1045,20.6572
16772.0,-10.5177,1.9106,20.7266
16782.0,-10.5153,1.9273,20.4872
16792.0,-10.4148,1.9752,20.1831
16802.0,-10.4267,1.8699,19.3906
16812.0,-10.5752,1.9106,19.2111
16822.0,-9.9958,1.6712,18.9573
16832.0,-8.8298,1.8459,16.4482
16842.0,-7.355,1.3336,14.0444
16852.0,-5.0757,1.2809,10.829
16862.0,-2.8323,1.3288,8.3845
16872.0,-0.7614,1.3767,6.1866
16882.0,0.3903,1.3336,4.9297
16892.0,0.6512,1.1564,4.5801
16902.0,0.1149,0.814,4.7333
16912.0,-0.8164,0.6871,4.9632
16922.0,-1.7645,0.1867,4.8219
16932.0,-2.138,-0.6129,4.9895
16942.0,-2.1931,-0.9529,5.6551
16952.0,-2.0303,-0.6393,4.8626
16962.0,-1.4892,-0.182,4.0103
16972.0,-0.1149,-0.012,2.8754
16982.0,0.7997,-0.1293,1.6305
16992.0,1.3743,-0.1724,0.7446
17002.0,1.5323,-0.0431,-0.395
17012.0,0.9074,-0.1844,0.0934
17022.0,-0.3232,-0.2849,0.407
17032.0,-1.3479,-0.3879,1.2809
17042.0,-1.8555,-0.1508,2.1069
17052.0,-1.7933,0.0239,2.6552
17062.0,-1.2785,0.2035,3.1244
17072.0,-0.328,0.5578,2.9904
17082.0,0.4908,0.6656,2.6312
17092.0,0.8547,0.5626,2.3128
17102.0,0.7949,0.4741,1.6999
17112.0,0.5291,0.5148,1.2522
17122.0,0.0622,0.5243,0.9098
17132.0,-0.34,0.7183,0.9744
17142.0,-0.5842,0.6608,1.0247
17152.0,-0.7853,0.5483,1.3048
17162.0,-0.8452,0.6057,1.6568
17172.0,-0.7566,0.5243,1.7837
17182.0,-0.7207,0.34,1.9824
17192.0,-0.4884,0.3543,1.7047
17202.0,-0.4477,0.3783,1.4222
17212.0,-0.3783,0.2897,1.1181
17222.0,-0.407,0.328,0.5626
17232.0,-0.6369,0.3112,0.3065
17242.0,-0.6201,0.3208,0.0886
17252.0,-0.6991,0.3855,0.17
17262.0,-0.7901,0.4741,0.431
17272.0,-0.8116,0.5363,0.7063
17282.0,-0.759,0.6297,0.8164
17292.0,-0.5578,0.5986,1.0056
17302.0,-0.3448,0.6225,1.0175
17312.0,-0.2394,0.6009,0.9888
17322.0,-0.1963,0.6081,0.7398
17332.0,-0.2586,0.6249,0.5698
17342.0,-0.5219,0.6871,0.4525
17352.0,-0.826,0.6895,0.4429
17362.0,-0.9649,0.6943,0.656
17372.0,-0.9026,0.7829,0.7949
17382.0,-0.8308,0.8475,0.4693
17392.0,-0.984,0.8882,0.8332
17402.0,-0.8428,0.9098,0.814
17412.0,-0.8667,1.2905,0.838
17422.0,-1.2043,0.8332,0.7494
17432.0,-1.5083,0.6536,1.0151
17442.0,-1.8076,0.3208,1.3168
17452.0,-2.296,-0.1125,2.0662
17462.0,-3.711,-0.4022,5.1619
17472.0,-4.2066,0.2753,5.6072
17482.0,-4.5562,1.1253,7.3071
17492.0,-3.79,1.2857,6.7876
17502.0,-2.6169,0.5722,7.762
17512.0,-2.2098,-0.3998,9.414
17522.0,-2.5546,-0.1341,10.8793
17532.0,-3.5961,0.6464,12.6725
17542.0,-4.7405,1.0151,15.1553
17552.0,-7.75,1.2186,18.0212
17562.0,-9.4284,2.1931,18.7394
17572.0,-9.3565,2.3391,18.9525
17582.0,-8.3965,1.8866,17.7051
17592.0,-7.1635,1.0774,16.3811
17602.0,-5.7533,0.5555,14.4011
17612.0,-5.9903,0.431,13.8912
17622.0,-6.7971,0.8954,13.6302
17632.0,-7.5441,1.166,14.3724
17642.0,-8.1906,1.5323,15.1409
17652.0,-8.7795,2.0087,16.1345
17662.0,-8.9208,2.3966,17.1856
17672.0,-9.2488,2.7461,17.8512
17682.0,-9.2201,2.8539,18.1002
17692.0,-8.6215,2.6743,17.3005
17702.0,-7.908,2.5426,16.0579
17712.0,-7.2042,2.2817,14.4945
17722.0,-7.0868,2.0782,13.6541
17732.0,-7.683,1.7454,13.465
17742.0,-8.4491,1.3144,14.0061
17752.0,-9.0549,1.2163,14.2862
17762.0,-9.5696,1.3312,14.1042
17772.0,-9.7827,1.6137,14.1545
17782.0,-9.3398,1.8747,13.9797
17792.0,-8.5162,1.992,13.5201
17802.0,-7.4364,1.8244,13.1059
17812.0,-6.256,1.6448,12.4331
17822.0,-5.6288,1.2067,11.5017
17832.0,-5.5378,1.0199,11.0229
17842.0,-5.7365,0.9242,10.884
17852.0,-6.1699,0.8954,11.2168
17862.0,-6.4715,0.7183,11.6502
17872.0,-6.0214,0.644,11.3653
17882.0,-5.3008,0.8045,10.8601
17892.0,-4.628,0.735,10.4076
17902.0,-4.2186,0.6752,10.3334
17912.0,-3.8954,0.7661,9.8019
17922.0,-4.063,0.6895,9.6989
17932.0,-4.3383,0.5339,9.6965
17942.0,-4.5729,0.3831,9.8306
17952.0,-4.6256,0.2634,9.5409
17962.0,-4.5107,0.3639,9.1363
17972.0,-4.0869,0.4286,8.9088
17982.0,-3.6368,0.5219,8.6933
17992.0,-3.2848,0.4118,8.3725
18002.0,-3.1795,0.2993,8.2169
18012.0,-3.5913,-0.1341,8.1642
18022.0,-3.6943,-0.0455,8.2528
18032.0,-3.4955,0.0024,7.9104
18042.0,-3.4189,0.0982,7.7955
18052.0,-3.6296,0.2945,8.0397
18062.0,-3.6464,0.3112,8.4587
18072.0,-3.7158,0.4501,8.983
18082.0,-3.8858,0.4908,9.0381
18092.0,-3.802,0.6033,8.9208
18102.0,-3.7278,0.6009,8.691
18112.0,-3.5889,0.5746,8.2456
18122.0,-3.6152,0.5722,8.327
18132.0,-3.7302,0.5004,8.442
18142.0,-4.1444,0.6081,8.7388
18152.0,-4.6064,0.7063,9.1171
18162.0,-4.8626,0.6369,9.4044
18172.0,-4.9081,0.5555,9.3757
18182.0,-5.0757,0.4046,9.3206
18192.0,-5.1164,0.3017,9.177
18202.0,-4.9895,0.4262,9.0812
18212.0,-5.1284,0.3089,9.3015
18222.0,-4.8842,0.4022,9.3589
18232.0,-4.7453,0.3855,9.7468
18242.0,-4.8411,0.6009,9.5146
18252.0,-5.0901,0.7805,9.6726
18262.0,-5.126,1.0822,9.6247
18272.0,-5.1308,1.2881,9.7252
18282.0,-4.7549,1.312,9.8641
18292.0,-4.3981,1.2474,10.1131
18302.0,-4.0773,1.0343,10.5465
18312.0,-3.7733,1.0271,10.6662
18322.0,-3.7804,1.0271,10.6829
18332.0,-3.9241,1.0798,10.5656
18342.0,-4.0582,1.1037,10.331
18352.0,-4.0654,1.1516,10.0892
18362.0,-4.063,1.0367,10.058
18372.0,-4.051,1.1013,9.9671
18382.0,-4.0366,1.0343,10.0987
18392.0,-4.0749,0.9242,10.3382
18402.0,-4.2042,0.7374,10.5082
18412.0,-4.2186,0.6871,10.6518
18422.0,-4.2066,0.6273,10.6255
18432.0,-4.1348,0.6081,10.2999
18442.0,-4.0007,0.4788,10.0078
18452.0,-3.6895,0.3232,9.6774
18462.0,-3.5889,0.2322,9.402
18472.0,-3.5698,0.1604,9.4523
18482.0,-3.5386,0.1389,9.3039
18492.0,-3.383,-0.0144,9.2153
18502.0,-3.3519,-0.0503,9.074
18512.0,-3.3662,-0.0144,8.916
18522.0,-3.5434,-0.0622,8.9878
18532.0,-3.711,0.0144,9.0692
18542.0,-3.7182,0.0694,9.1075
18552.0,-3.7709,0.1389,9.0214
18562.0,-3.7302,0.3879,8.8753
18572.0,-3.8547,0.4549,8.9112
18582.0,-3.9313,0.5578,9.0477
18592.0,-3.9624,0.5483,8.9687
18602.0,-3.7852,0.4741,8.9184
18612.0,-3.5841,0.6033,8.6862
18622.0,-3.6775,0.6704,8.6526
18632.0,-3.9409,0.6847,9.0836
18642.0,-4.0151,0.6752,9.323
18652.0,-4.0654,0.6536,9.4523
18662.0,-4.0007,0.6297,9.4332
18672.0,-3.9504,0.5531,9.3996
18682.0,-3.9193,0.5171,9.1937
18692.0,-3.7326,0.5004,8.9543
18702.0,-3.6895,0.3855,8.8059
18712.0,-3.6703,0.316,8.9376
18722.0,-3.6895,0.4357,9.0501
18732.0,-3.8547,0.3615,9.0788
18742.0,-4.0438,0.3017,9.3637
18752.0,-4.0654,0.3807,9.4523
18762.0,-4.0582,0.316,9.3613
18772.0,-3.9911,0.3328,9.2416
18782.0,-3.8451,0.2993,9.1363
18792.0,-3.814,0.3041,8.9184
18802.0,-3.9145,0.2873,8.7724
18812.0,-3.9696,0.4669,8.8274
18822.0,-4.1132,0.6345,9.2392
18832.0,-4.2449,0.8212,9.4834
18842.0,-4.4293,0.8236,9.5768
18852.0,-4.4915,0.8954,9.5337
18862.0,-4.1922,1.0774,9.1913
18872.0,-4.0199,1.2426,8.9495
18882.0,-3.8595,1.3096,8.6957
18892.0,-3.7685,1.3072,8.8538
18902.0,-3.7709,1.3431,8.9687
18912.0,-3.735,1.3168,9.1363
18922.0,-3.6655,1.4006,9.3733
18932.0,-3.6559,1.4269,9.742
18942.0,-3.7613,1.3072,9.7276
18952.0,-3.8523,1.3431,9.8306
18962.0,-3.9744,1.3527,9.6702
18972.0,-4.118,1.3958,9.8138
18982.0,-3.802,1.4078,9.5193
18992.0,-3.4453,1.6257,9.5481
19002.0,-3.1532,1.6616,9.4667
19012.0,-2.9832,1.8052,9.6582
19022.0,-3.043,1.889,9.7659
19032.0,-2.9808,2.0255,9.7995
19042.0,-3.0957,2.0207,9.7109
19052.0,-3.2753,2.083,9.6199
19062.0,-3.3232,2.1117,9.6462
19072.0,-3.5219,2.1237,9.6391
19082.0,-3.6488,2.1237,9.6558
19092.0,-3.9193,2.2458,9.8833
19102.0,-3.9097,2.229,9.9958
19112.0,-3.9002,2.15,9.9551
19122.0,-3.7733,1.9585,9.7755
19132.0,-3.5985,1.9513,9.4595
19142.0,-3.4836,1.8076,9.1554
19152.0,-3.4069,1.64,8.9591
19162.0,-3.371,1.6017,8.7628
19172.0,-3.5602,1.5467,9.0237
19182.0,-3.5674,1.4605,9.414
19192.0,-3.6081,1.561,9.6079
19202.0,-3.5698,1.5036,10.0341
19212.0,-3.3184,1.4437,10.0987
19222.0,-3.1723,1.3264,10.0724
19232.0,-3.146,1.4269,9.7348
19242.0,-3.1149,1.4246,9.4667
19252.0,-3.0742,1.4676,9.3278
19262.0,-3.0789,1.4772,9.2488
19272.0,-3.0885,1.549,9.5912
19282.0,-3.0813,1.6616,9.8665
19292.0,-3.1077,1.6688,10.161
19302.0,-3.2322,1.6616,10.1347
19312.0,-3.4333,1.7023,10.1442
19322.0,-3.6512,1.6783,10.0413
19332.0,-3.6631,1.5467,9.821
19342.0,-3.5841,1.5945,9.6654
19352.0,-3.3495,1.6544,9.5792
19362.0,-3.1053,1.652,9.2919
19372.0,-2.8635,1.7095,9.1459
19382.0,-2.7677,1.6688,9.0788
19392.0,-3.0119,1.6927,9.1267
19402.0,-3.4189,1.7957,9.3948
19412.0,-3.9073,1.7047,9.7803
19422.0,-3.9528,1.743,10.0293
19432.0,-3.984,1.822,10.1107
19442.0,-3.8499,1.7933,9.9623
19452.0,-3.7852,1.7669,9.7468
19462.0,-3.5075,1.7597,9.4332
19472.0,-3.4046,1.743,9.2512
19482.0,-3.225,1.8771,9.1339
19492.0,-3.1268,1.8435,8.9687
19502.0,-3.0478,1.8196,8.8801
19512.0,-3.0023,1.743,8.8394
19522.0,-3.0622,1.719,8.9735
19532.0,-3.1771,1.7382,9.1004
19542.0,-3.4189,1.8148,9.3087
19552.0,-3.6129,1.7358,9.5936
19562.0,-3.644,1.731,9.6678
19572.0,-3.4884,1.6975,9.5577
19582.0,-3.5171,1.5299,9.5457
19592.0,-3.486,1.4772,9.3278
19602.0,-3.4812,1.5251,9.3637
19612.0,-3.3662,1.3575,9.2368
19622.0,-3.3232,1.4461,9.0908
19632.0,-3.3208,1.3886,9.1506
19642.0,-3.0742,1.4293,8.8825
19652.0,-2.8323,1.3408,8.9112
19662.0,-2.6576,1.2139,8.9447
19672.0,-2.557,1.3527,9.074
19682.0,-2.4852,1.3599,9.3039
19692.0,-2.7246,1.3934,9.481
19702.0,-2.8611,1.3384,9.5002
19712.0,-2.9281,1.3647,9.4451
19722.0,-2.9616,1.3551,9.3805
19732.0,-2.9401,1.4102,9.347
19742.0,-2.7701,1.312,8.9567
19752.0,-2.5977,1.4964,8.9543
19762.0,-2.5905,1.4533,8.837
19772.0,-2.715,1.3719,8.8681
19782.0,-2.7102,1.2617,8.77
19792.0,-3.2513,1.2617,9.0692
19802.0,-3.7948,1.0846,9.2296
19812.0,-4.1731,1.0247,9.0573
19822.0,-4.3431,0.8763,9.0381
19832.0,-3.984,0.917,8.9184
19842.0,-3.4237,1.1827,8.8394
19852.0,-2.9257,1.4748,8.9687
19862.0,-2.7964,1.4581,9.1889
19872.0,-2.9066,1.4198,9.1578
19882.0,-3.2872,1.3264,9.2823
19892.0,-3.723,1.1181,9.2847
19902.0,-4.1611,1.1181,9.0716
19912.0,-4.3527,0.8691,8.916
19922.0,-4.2282,0.7422,8.8226
19932.0,-4.3622,0.7374,8.9376
19942.0,-4.9632,0.68,9.1818
19952.0,-5.3103,0.838,8.8729
19962.0,-5.3199,0.8116,8.8609
19972.0,-5.0685,0.7111,8.4803
19982.0,-4.6424,0.6823,8.0685
19992.0,-4.3886,0.6416,7.8817
20002.0,-4.2473,0.5291,7.4939
20012.0,-4.3072,0.4166,7.3574
20022.0,-4.3072,0.3496,7.1299
20032.0,-4.4101,0.3998,7.0413
20042.0,-4.6831,0.4334,7.367
20052.0,-4.8171,0.4405,7.7883
20062.0,-4.889,0.4932,8.1666
20072.0,-4.9177,0.3448,8.4156
20082.0,-4.695,0.261,8.3199
20092.0,-4.3742,0.1293,7.8745
20102.0,-3.893,-0.0072,7.1563
20112.0,-3.4046,-0.2658,6.6272
20122.0,-3.1603,-0.3017,6.4548
20132.0,-3.1412,-0.3017,6.5553
20142.0,-3.3255,-0.1987,6.8714
20152.0,-3.5865,-0.2729,7.4436
20162.0,-3.802,-0.2897,7.7524
20172.0,-3.9648,-0.2322,8.0278
20182.0,-3.8499,-0.2921,8.0852
20192.0,-3.4884,-0.2011,7.8793
20202.0,-3.1508,-0.1317,7.5154
20212.0,-3.0789,-0.2203,7.3287
20222.0,-2.9473,-0.2346,7.0725
20232.0,-2.7414,-0.0168,7.1682
20242.0,-2.7869,0.012,7.7428
20252.0,-3.2633,-0.0575,8.3941
20262.0,-3.7565,-0.1077,8.8418
20272.0,-4.0151,0.0551,9.2129
20282.0,-3.984,0.0503,9.0884
20292.0,-3.8523,0.0263,8.8107
20302.0,-3.644,0.0862,8.2935
20312.0,-3.4524,0.067,8.0325
20322.0,-3.3351,-0.0431,8.1427
20332.0,-3.4572,-0.1987,8.6239
20342.0,-3.5841,-0.1915,9.2105
20352.0,-4.2138,0.5435,9.7444
20362.0,-4.9201,0.5243,10.3238
20372.0,-5.0637,0.7039,10.7978
20382.0,-5.5498,1.1444,10.9104
20392.0,-5.612,1.0582,11.0038
20402.0,-5.5593,0.9074,10.9415
20412.0,-5.3151,0.9481,10.6853
20422.0,-5.4037,0.8428,11.1163
20432.0,-5.636,0.7183,11.983
20442.0,-5.952,0.735,12.5049
20452.0,-6.0908,0.8523,12.9598
20462.0,-6.3829,1.2163,13.5272
20472.0,-6.9719,1.166,14.3868
20482.0,-7.4172,0.8978,15.6988
20492.0,-7.9009,1.0487,17.1353
20502.0,-8.5042,0.9792,18.5551
20512.0,-8.7149,1.0295,19.4122
20522.0,-8.8538,1.1923,19.9605
20532.0,-8.7676,1.5826,20.2334
20542.0,-9.4595,2.1093,20.729
20552.0,-10.6374,1.9992,21.8184
20562.0,-11.497,2.2266,22.5534
20572.0,-11.9902,2.0997,23.5829
20582.0,-12.1266,1.9656,24.4975
20592.0,-12.0261,1.7262,25.1152
20602.0,-11.6215,1.4485,25.5078
20612.0,-10.9535,1.3886,25.0577
20622.0,-10.2496,1.1349,24.3107
20632.0,-9.3134,1.3431,23.6092
20642.0,-8.509,1.7573,23.0586
20652.0,-7.9368,1.9992,22.9317
20662.0,-7.6184,2.0375,22.8191
20672.0,-7.3502,1.889,21.9189
20682.0,-6.6798,2.0159,20.4896
20692.0,-6.1699,1.9752,19.1752
20702.0,-5.7293,1.8842,17.9278
20712.0,-5.1044,1.8675,16.8815
20722.0,-4.6519,1.7717,16.3739
20732.0,-4.0079,1.8196,15.9095
20742.0,-4.1037,1.9058,16.2135
20752.0,-4.4149,1.7238,15.8927
20762.0,-4.3503,1.5395,14.8441
20772.0,-3.5985,1.3072,13.0747
20782.0,-2.6863,1.0654,10.9918
20792.0,-1.1109,1.0606,7.5896
20802.0,0.3184,1.2665,4.877
20812.0,1.0487,1.3216,3.2274
20822.0,1.5634,1.4317,1.2665
20832.0,1.2186,1.5227,0.6225
20842.0,0.4621,1.4509,1.0654
20852.0,-0.2418,1.6568,1.1133
20862.0,-0.8547,1.0534,2.1237
20872.0,-1.3024,0.7087,2.4588
20882.0,-1.5131,0.5267,2.6671
20892.0,-1.1229,0.3065,2.7797
20902.0,-0.2825,0.3328,2.3343
20912.0,0.6033,0.4932,1.8052
20922.0,1.0056,0.589,1.2522
20932.0,1.0175,0.644,0.8859
20942.0,1.0606,0.7877,0.3903
20952.0,0.8332,0.7925,0.4788
20962.0,0.4932,0.7853,0.5722
20972.0,0.1628,0.7949,0.7518
20982.0,-0.0551,0.7829,1.1277
20992.0,-0.1293,0.7398,1.0175
21002.0,-0.0575,0.4932,1.2905
21012.0,0.0311,0.5004,1.3096
21022.0,0.2011,0.4836,1.2665
21032.0,0.1006,0.5459,1.324
21042.0,0.2011,0.5938,1.3264
21052.0,0.3065,0.6632,1.2378
21062.0,0.2514,0.7039,1.312
21072.0,-0.0958,0.4573,1.4078
21082.0,-0.5435,0.3663,1.403
21092.0,-0.3998,0.1963,1.4485
21102.0,-0.17,0.3208,1.2043
21112.0,-0.249,0.2729,1.1301
21122.0,-0.4166,0.17,0.9697
21132.0,-0.5483,0.158,0.7997
21142.0,-0.8811,0.1197,0.7302
21152.0,-1.1133,0.0934,0.6847
21162.0,-1.2498,0.0958,0.7661
21172.0,-1.2306,0.0215,0.7877
21182.0,-0.9577,0.0742,0.8715
21192.0,-0.6847,0.1484,1.0534
21202.0,-0.4238,0.3903,1.0606
21212.0,-0.2466,0.4741,1.2809
21222.0,-0.328,0.3639,1.415
21232.0,-0.3017,0.3304,1.6568
21242.0,-0.3855,0.3136,1.5467
21252.0,-0.4741,0.4166,1.3767
21262.0,-0.6225,0.5076,1.3886
21272.0,-0.7278,0.4693,0.9744
21282.0,-0.7398,0.6201,0.8236
21292.0,-0.8404,0.6345,0.565
21302.0,-0.7015,0.5986,0.826
21312.0,-0.5866,0.5507,1.1205
21322.0,-0.498,0.4334,1.5395
21332.0,-0.5435,0.5315,1.7693
21342.0,-0.9936,0.5243,2.4541
21352.0,-1.9249,0.7829,2.9329
21362.0,-3.3232,0.8643,4.0893
21372.0,-4.7333,1.0511,5.545
21382.0,-5.6168,1.7597,6.4141
21392.0,-6.3231,2.0542,7.0413
21402.0,-6.3614,1.3551,7.1132
21412.0,-4.8554,0.7159,7.8003
21422.0,-3.2417,0.6201,9.1004
21432.0,-0.2203,0.0503,10.7428
21442.0,-0.3711,0.9888,12.3158
21452.0,-3.9409,1.98,14.8417
21462.0,-5.9233,1.9728,17.8967
21472.0,-7.5848,2.0016,16.8767
21482.0,-8.8011,1.8004,16.7163
21492.0,-9.4523,1.403,16.283
21502.0,-9.6678,0.9768,15.5264
21512.0,-9.0501,0.7302,14.7387
21522.0,-8.3845,0.6776,13.9486
21532.0,-8.4779,0.4405,13.8265
21542.0,-9.086,0.838,14.4634
21552.0,-9.8306,1.2498,15.4067
21562.0,-10.6207,1.5012,17.2095
21572.0,-10.7978,1.7023,18.5982
21582.0,-10.386,2.0542,18.4354
21592.0,-9.979,1.8603,17.5399
21602.0,-9.5074,1.6113,16.2303
21612.0,-8.8059,1.5131,14.7052
21622.0,-8.3151,1.3312,14.0013
21632.0,-8.2408,1.4844,14.1497
21642.0,-8.7747,1.5778,15.0667
21652.0,-9.5888,1.7406,15.6844
21662.0,-10.2783,1.9992,15.9693
21672.0,-10.3884,2.1668,16.1609
21682.0,-10.4172,2.3559,15.8161
21692.0,-9.9814,2.217,15.5192
21702.0,-9.3972,2.0279,14.6262
21712.0,-9.1004,1.233,14.0779
21722.0,-7.8913,0.8164,13.3596
21732.0,-7.5585,0.8954,12.2463
21742.0,-7.8841,1.0822,11.8417
21752.0,-8.0996,1.3599,11.5808
21762.0,-8.0038,1.5945,11.3988
21772.0,-7.4699,1.6688,11.1666
21782.0,-6.7876,1.3767,10.817
21792.0,-6.0358,1.1636,11.0636
21802.0,-5.5354,0.7709,10.7236
21812.0,-5.2074,0.7254,10.3525
21822.0,-5.3032,0.8547,10.1466
21832.0,-5.3893,0.6512,9.9814
21842.0,-5.193,0.5243,9.6702
21852.0,-5.4085,0.5243,9.1889
21862.0,-5.3726,1.0774,8.7436
21872.0,-5.0302,1.4126,8.746
21882.0,-4.7908,1.4557,8.7508
21892.0,-4.7884,1.2282,8.8178
21902.0,-4.9105,1.1468,8.9495
21912.0,-4.9033,1.1396,9.177
21922.0,-4.9033,0.9098,9.0836
21932.0,-4.6735,0.6991,9.2656
21942.0,-4.2832,0.3065,9.1913
21952.0,-3.5793,0.2107,8.8729
21962.0,-3.0143,0.2705,8.8178
21972.0,-2.6815,0.1796,8.7604
21982.0,-2.727,0.0862,8.4204
21992.0,-2.9664,-0.0335,8.497
22002.0,-3.2322,-0.0383,8.5832
22012.0,-3.6823,0.1245,9.2536
22022.0,-3.9528,0.2705,10.1394
22032.0,-3.984,0.4286,10.6877
22042.0,-3.7086,0.6321,10.6494
22052.0,-3.3399,0.7997,10.4698
22062.0,-2.8659,0.9194,10.1562
22072.0,-2.4517,1.0558,9.505
22082.0,-2.1021,1.1277,8.7005
22092.0,-2.2146,1.1516,8.1762
22102.0,-2.7869,1.1564,7.9033
22112.0,-3.45,1.2905,8.3342
22122.0,-3.96,1.4533,9.1889
22132.0,-4.2018,1.4724,9.833
22142.0,-3.9193,1.5826,9.9982
22152.0,-3.5171,1.5155,9.9575
22162.0,-3.0263,1.6592,9.6702
22172.0,-2.6935,1.7382,9.0692
22182.0,-2.5139,1.7334,8.5018
22192.0,-2.5187,1.6879,8.0517
22202.0,-2.7198,1.6712,7.7955
22212.0,-3.0694,1.798,7.9535
22222.0,-3.4596,1.8507,8.6287
22232.0,-3.7493,1.8555,9.3781
22242.0,-3.96,1.7909,10.0078
22252.0,-4.0223,1.8842,10.0245
22262.0,-4.0199,1.7286,9.9144
22272.0,-3.6847,1.6496,9.6462
22282.0,-3.4668,1.6951,9.1004
22292.0,-3.4117,1.6664,8.8777
22302.0,-3.5769,1.5227,8.8322
22312.0,-3.6248,1.6257,8.5449
22322.0,-3.6368,1.5299,8.6143
22332.0,-3.541,1.6017,8.4611
22342.0,-3.7852,1.5945,8.6622
22352.0,-4.0725,1.5754,8.9352
22362.0,-4.2282,1.652,9.347
22372.0,-4.3144,1.6137,9.4068
22382.0,-4.1396,1.6257,9.3637
22392.0,-4.0677,1.6209,9.1195
22402.0,-3.7493,1.4868,8.8346
22412.0,-3.4022,1.5227,8.4683
22422.0,-3.3255,1.561,8.3917
22432.0,-3.3806,1.5658,8.4922
22442.0,-3.6009,1.6376,8.6335
22452.0,-3.5889,1.6257,8.8514
22462.0,-3.6248,1.5945,8.8466
22472.0,-3.8475,1.5826,9.1363
22482.0,-4.0725,1.6089,9.4308
22492.0,-4.1731,1.5682,9.6798
22502.0,-4.1037,1.5945,9.5409
22512.0,-3.9768,1.5251,9.4499
22522.0,-3.7757,1.5514,9.2943
22532.0,-3.6272,1.4916,9.2488
22542.0,-3.4524,1.4916,9.2751
22552.0,-3.2609,1.391,9.1363
22562.0,-3.3184,1.3695,9.2129
22572.0,-3.6727,1.3072,9.4044
22582.0,-3.9528,1.2186,9.4954
22592.0,-4.0079,1.1133,9.6438
22602.0,-3.8547,1.0511,9.6558
22612.0,-3.6512,0.9744,9.4739
22622.0,-3.6775,0.9409,9.2703
22632.0,-3.5554,0.9601,9.1578
22642.0,-3.4046,1.008,8.9878
22652.0,-3.486,0.9266,8.8705
22662.0,-3.6392,1.0295,8.9232
22672.0,-4.0079,1.0271,9.1147
22682.0,-4.3144,0.9433,9.1315
22692.0,-4.5131,0.7278,9.4427
22702.0,-4.3838,0.5866,9.4116
22712.0,-4.051,0.3974,9.4667
22722.0,-3.9265,0.1867,9.4092
22732.0,-3.8714,0.0694,9.3326
22742.0,-3.948,0.0359,9.2057
22752.0,-4.0247,0.0551,9.3111
22762.0,-4.1204,0.0814,9.165
22772.0,-4.1946,0.091,9.1626
22782.0,-4.2425,0.0958,9.3087
22792.0,-4.4796,0.067,9.3613
22802.0,-4.7669,0.0742,9.3805
22812.0,-4.8315,0.0718,9.4379
22822.0,-4.8794,0.079,9.5098
22832.0,-4.9344,0.0958,9.6343
22842.0,-4.9584,0.1484,9.7252
22852.0,-5.1284,0.1748,10.0437
22862.0,-5.2313,0.2849,9.9814
22872.0,-4.8698,0.1915,9.7181
22882.0,-4.5849,0.146,9.5098
22892.0,-4.3622,0.0742,9.1602
22902.0,-4.2569,0.103,9.0477
22912.0,-4.2952,0.0814,9.1626
22922.0,-4.1755,0.1197,9.3134
22932.0,-4.0294,0.0503,9.1435
22942.0,-4.0414,0.1413,9.256
22952.0,-4.0869,0.103,9.4475
22962.0,-4.0582,0.0886,9.6438
22972.0,-4.1156,0.2227,9.6941
22982.0,-3.9624,0.3543,9.6295
22992.0,-3.8595,0.3903,9.505
23002.0,-3.6775,0.5243,9.2895
23012.0,-3.5338,0.589,9.2608
23022.0,-3.6105,0.5387,9.2488
23032.0,-3.7541,0.4812,9.1482
23042.0,-4.0414,0.4884,9.2081
23052.0,-4.1492,0.4645,9.2584
23062.0,-4.4484,0.3831,9.3326
23072.0,-4.4939,0.4477,9.3901
23082.0,-4.5921,0.3711,9.2009
23092.0,-4.5083,0.3136,9.1459
23102.0,-4.3886,0.2658,8.9735
23112.0,-4.0725,0.2346,8.8849
23122.0,-3.9097,0.2897,8.8897
23132.0,-3.9145,0.261,9.0309
23142.0,-3.9792,0.3352,9.0884
23152.0,-4.1037,0.3735,9.1889
23162.0,-4.1013,0.4429,9.2656
23172.0,-4.2042,0.6081,9.4044
23182.0,-4.2713,0.6201,9.3829
23192.0,-4.3694,0.5698,9.232
23202.0,-4.1946,0.644,8.8705
23212.0,-4.0821,0.6704,8.7149
23222.0,-3.9983,0.723,8.5808
23232.0,-4.1803,0.7853,8.9304
23242.0,-4.3598,0.9385,9.3661
23252.0,-4.2521,0.9697,9.6151
23262.0,-4.0127,0.9744,9.6271
23272.0,-3.8738,0.9194,9.6151
23282.0,-3.7493,0.8092,9.5648
23292.0,-3.7373,0.7877,9.4236
23302.0,-3.7397,0.7015,9.5265
23312.0,-3.8092,0.7278,9.4763
23322.0,-3.8834,0.7183,9.5768
23332.0,-4.0342,0.8571,9.6822
23342.0,-4.1276,0.7781,9.9216
23352.0,-4.0677,0.8045,9.9503
23362.0,-4.0079,0.7638,9.5792
23372.0,-3.9241,0.7901,9.3709
23382.0,-4.0151,0.8811,9.2751
23392.0,-4.1515,0.8308,9.3518
23402.0,-4.2784,0.8475,9.3637
23412.0,-4.2186,0.8882,9.4739
23422.0,-4.3239,0.8954,9.6822
23432.0,-4.3766,0.8763,9.8713
23442.0,-4.5226,0.8428,9.9359
23452.0,-4.5203,0.7973,9.8474
23462.0,-4.561,0.8595,9.7492
23472.0,-4.3167,0.929,9.5768
23482.0,-4.209,0.838,9.3829
23492.0,-4.4604,0.7997,9.3685
23502.0,-4.9584,0.8236,9.505
23512.0,-5.4229,0.9218,9.6726
23522.0,-5.3917,1.0822,9.7683
23532.0,-4.9273,1.1085,9.5409
23542.0,-4.4891,1.2474,9.2296
23552.0,-4.1659,1.3336,8.8322
23562.0,-4.0606,1.3575,8.6191
23572.0,-4.142,1.1827,8.6239
23582.0,-4.3407,1.2977,8.7317
23592.0,-4.5825,1.3408,8.9998
23602.0,-4.7453,1.4126,9.2081
23612.0,-4.7501,1.403,9.3158
23622.0,-4.6591,1.3384,9.1746
23632.0,-4.6088,1.2953,8.916
23642.0,-4.4819,1.2929,8.5473
23652.0,-4.458,1.3001,8.3773
23662.0,-4.4652,1.3479,8.3151
23672.0,-4.458,1.4293,8.2983
23682.0,-4.4532,1.4581,8.2337
23692.0,-4.3167,1.6017,8.2768
23702.0,-4.2641,1.7023,8.5114
23712.0,-4.0654,1.7238,8.6311
23722.0,-3.9576,1.8555,8.7173
23732.0,-3.9145,1.9154,8.6526
23742.0,-4.0055,1.9513,8.7604
23752.0,-3.9313,1.9273,8.77
23762.0,-3.8379,2.0183,8.7724
23772.0,-3.8858,1.9656,8.7245
23782.0,-4.1731,1.9776,8.8155
23792.0,-4.7501,1.9513,9.098
23802.0,-5.1811,1.822,9.3948
23812.0,-5.4971,1.7047,9.8282
23822.0,-5.4348,1.7071,10.1993
23832.0,-5.1619,1.7334,9.9742
23842.0,-4.7621,1.7047,9.7779
23852.0,-4.3072,1.743,9.3087
23862.0,-3.8355,1.6999,8.8322
23872.0,-3.6296,1.6544,8.6191
23882.0,-3.6176,1.6472,8.4491
23892.0,-3.6224,1.731,8.5449
23902.0,-3.7373,1.7286,8.734
23912.0,-3.7493,1.7933,8.8681
23922.0,-3.8618,1.7597,9.1051
23932.0,-3.9361,1.8244,9.0956
23942.0,-4.0558,1.7837,8.9783
23952.0,-4.039,1.5706,8.8969
23962.0,-3.9768,1.6712,8.849
23972.0,-4.1037,1.5419,8.8897
23982.0,-4.221,1.549,8.9304
23992.0,-4.2329,1.5658,9.2057
24002.0,-4.2066,1.561,9.3326
24012.0,-4.1132,1.7023,9.414
24022.0,-4.0031,1.6472,9.4715
24032.0,-3.9265,1.6281,9.2201
24042.0,-3.9002,1.64,8.9807
24052.0,-3.8451,1.549,8.9184
24062.0,-4.0845,1.5802,8.9376
24072.0,-4.3072,1.6616,9.0932
24082.0,-4.3598,1.6496,9.1291
24092.0,-4.4341,1.6903,9.0956
24102.0,-4.3981,1.7023,9.1291
24112.0,-4.47,1.6305,9.1626
24122.0,-4.6663,1.5586,9.2129
24132.0,-4.798,1.4772,9.177
24142.0,-4.7908,1.4868,9.1578
24152.0,-4.7501,1.3695,9.1123
24162.0,-4.6711,1.4126,9.0549
24172.0,-4.4628,1.3479,8.8992
24182.0,-4.3598,1.3575,8.8992
24192.0,-4.2593,1.3527,8.9902
24202.0,-4.3742,1.4868,9.1291
24212.0,-4.5586,1.4078,9.0884
24222.0,-5.0111,1.4892,9.1674
24232.0,-5.3271,1.3886,9.3302
24242.0,-5.2218,1.2881,9.0261
24252.0,-4.9967,1.233,8.8131
24262.0,-4.6926,1.2186,8.5641
24272.0,-4.2665,1.257,8.3821
24282.0,-4.0079,1.2067,8.2504
24292.0,-3.8355,1.1516,7.9152
24302.0,-3.62,1.1061,7.9224
24312.0,-3.5698,1.1037,7.7093
24322.0,-3.5817,1.0199,7.6902
24332.0,-3.6152,0.9936,7.5896
24342.0,-3.7421,0.9744,7.4268
24352.0,-3.6895,0.9457,7.2089
24362.0,-3.4979,0.8404,6.9456
24372.0,-3.3303,0.7614,6.6559
24382.0,-3.1388,0.7302,6.3901
24392.0,-2.9113,0.7183,6.3255
24402.0,-2.8347,0.6488,6.2968
24412.0,-3.0694,0.6105,6.3135
24422.0,-3.1268,0.5531,6.1268
24432.0,-3.1603,0.5243,5.964
24442.0,-2.8754,0.4357,5.6
24452.0,-2.6193,0.3232,5.2241
24462.0,-2.3966,0.2801,5.0566
24472.0,-2.4014,0.2155,5.1044
24482.0,-2.5522,0.2442,5.3079
24492.0,-2.7126,0.1891,5.7341
24502.0,-2.9951,0.1389,5.9041
24512.0,-3.1292,0.1604,6.0717
24522.0,-3.1077,0.1125,5.9903
24532.0,-2.8299,0.237,5.703
24542.0,-2.6719,0.1676,5.7676
24552.0,-2.7318,0.067,5.7437
24562.0,-2.8371,0.0934,5.8107
24572.0,-2.8539,0.1293,6.043
24582.0,-3.0263,0.0622,6.1914
24592.0,-3.122,-0.0072,6.4476
24602.0,-3.1077,-0.1125,6.5027
24612.0,-3.2106,0.0048,6.4452
24622.0,-3.4596,-0.0455,6.7133
24632.0,-3.5698,0.0838,7.1515
24642.0,-3.8427,0.1508,7.4675
24652.0,-4.1156,0.103,7.6902
24662.0,-4.4245,0.2083,8.1331
24672.0,-4.8123,0.4501,8.4491
24682.0,-5.6096,0.6704,9.5002
24692.0,-6.608,0.9816,10.398
24702.0,-7.3957,1.0487,10.8697
24712.0,-7.5537,0.893,11.1282
24722.0,-7.3047,0.8092,11.0899
24732.0,-7.3406,0.6847,11.5951
24742.0,-7.2856,0.5555,12.1985
24752.0,-7.3047,0.4908,12.3182
24762.0,-7.8195,0.4788,12.6821
24772.0,-8.6095,0.4884,13.283
24782.0,-8.8131,0.5459,13.7595
24792.0,-9.0261,0.5986,14.6118
24802.0,-9.5074,0.5315,15.682
24812.0,-9.4068,0.2634,16.2135
24822.0,-9.0501,0.2825,16.5008
24832.0,-9.1075,0.3759,16.6708
24842.0,-9.2656,0.395,16.8791
24852.0,-9.8019,0.4812,17.7123
24862.0,-10.5704,0.51,19.5032
24872.0,-11.0852,0.577,21.0283
24882.0,-11.1761,0.6919,22.0865
24892.0,-10.9487,0.8691,22.6108
24902.0,-10.8721,1.1612,23.1208
24912.0,-11.0875,1.5419,23.8798
24922.0,-11.5975,1.6855,24.9524
24932.0,-12.2703,1.8531,25.7951
24942.0,-11.8824,1.8483,25.3354
24952.0,-10.8386,1.6951,24.6268
24962.0,-9.2632,1.5682,24.0713
24972.0,-8.4851,1.7645,23.5877
24982.0,-8.6886,1.9944,23.7289
24992.0,-9.2919,2.229,24.0785
25002.0,-9.5577,2.4756,24.4137
25012.0,-9.809,2.5642,24.4376
25022.0,-10.0078,2.4421,24.2604
25032.0,-9.4044,2.4852,23.3052
25042.0,-8.5593,2.4469,21.3682
25052.0,-7.3861,2.3439,19.2685
25062.0,-6.2058,2.2841,17.176
25072.0,-5.1427,2.2458,14.8776
25082.0,-3.4524,2.1596,12.0476
25092.0,-2.6552,2.0087,10.3813
25102.0,-2.3415,1.8603,10.0437
25112.0,-1.6161,2.1093,9.4116
25122.0,-2.2146,1.6927,9.3972
25132.0,-2.2625,1.0606,7.6998
25142.0,-2.0901,0.7446,6.5625
25152.0,-1.3216,0.6847,4.8267
25162.0,-0.2825,0.328,2.6432
25172.0,0.1652,0.4429,1.3575
25182.0,0.2442,0.3687,0.3926
25192.0,-0.6249,0.1197,0.1676
25202.0,-0.5148,0.3208,0.5076
25212.0,-0.7446,-0.0694,0.9002
25222.0,-0.7254,-0.0814,2.2027
25232.0,-0.4884,0.1652,2.9305
25242.0,0.0239,0.6177,3.1412
25252.0,0.6153,0.7111,3.2657
25262.0,0.929,0.3998,3.1173
25272.0,0.9409,0.2634,2.4804
25282.0,0.7877,0.2466,1.6807
25292.0,0.6967,0.0383,1.1253
25302.0,0.9194,0.3184,0.6416
25312.0,0.5626,0.249,1.3886
25322.0,0.7661,-0.1006,1.1851
25332.0,0.9601,-0.2394,1.2594
25342.0,0.9313,0.0263,1.1636
25352.0,0.4597,0.2035,1.6424
25362.0,0.2538,0.2634,2.0518
25372.0,0.2274,0.1844,2.0686
25382.0,0.4118,0.2442,1.9297
25392.0,0.3065,0.1556,1.6424
25402.0,0.2849,0.146,1.4413
25412.0,0.1963,0.2322,1.0702
25422.0,-0.0192,0.2035,0.8547
25432.0,-0.1389,0.2753,0.5962
25442.0,-0.2634,0.2155,0.4573
25452.0,-0.486,0.2658,0.5148
25462.0,-0.6776,0.2298,0.4645
25472.0,-0.6967,0.2514,0.6488
25482.0,-0.5315,0.2969,0.5052
25492.0,-0.7685,0.1676,0.68
25502.0,-0.7853,0.2682,0.9242
25512.0,-0.8499,0.1676,0.9792
25522.0,-0.8188,0.1556,0.9577
25532.0,-0.5531,0.1101,0.8332
25542.0,-0.4142,0.1197,0.7877
25552.0,-0.4262,0.1844,0.5794
25562.0,-0.6584,0.1437,0.6081
25572.0,-0.8954,0.1796,0.8356
25582.0,-1.1756,0.1628,0.9337
25592.0,-1.2043,0.103,1.0223
25602.0,-1.1205,0.0718,1.0965
25612.0,-0.8715,0.0503,0.9385
25622.0,-0.6488,0.1293,0.7757
25632.0,-0.5339,0.1604,0.6847
25642.0,-0.3496,0.17,0.7949
25652.0,-0.17,0.2514,0.9074
25662.0,-0.6967,0.2705,1.3408
25672.0,-0.917,0.4118,1.6903
25682.0,-1.47,0.1413,2.5139
25692.0,-1.9369,-0.079,3.5003
25702.0,-2.0782,0.1987,4.4197
25712.0,-1.7166,1.2282,4.5203
25722.0,-1.1803,2.6887,2.9497
25732.0,-2.2817,1.1181,4.7333
25742.0,-3.5267,0.4477,6.6631
25752.0,-4.6208,-0.1245,8.5904
25762.0,-4.6088,-0.2442,11.6262
25772.0,-5.0805,-0.419,12.6318
25782.0,-3.6368,1.2402,11.9088
25792.0,-3.4429,1.6735,14.2216
25802.0,-3.6512,1.7023,13.6134
25812.0,-4.4748,1.8603,14.8656
25822.0,-4.458,2.2865,14.698
25832.0,-4.7836,2.0518,13.8672
25842.0,-5.5857,2.217,13.2663
25852.0,-6.778,2.3607,13.7355
25862.0,-8.3773,2.5474,15.3492
25872.0,-9.5385,3.0574,17.8967
25882.0,-9.5984,3.1651,20.0059
25892.0,-9.0118,3.1915,21.2031
25902.0,-7.6974,3.3112,20.8415
25912.0,-6.7109,2.9664,19.7713
25922.0,-5.6168,2.7126,18.488
25932.0,-4.9608,2.3942,16.848
25942.0,-5.6096,2.1835,15.9478
25952.0,-7.1323,2.1452,16.5391
25962.0,-8.5545,2.2051,17.8344
25972.0,-9.2751,2.3056,18.9573
25982.0,-9.7324,2.4445,19.2446
25992.0,-9.9982,2.6743,19.2159
26002.0,-9.6127,2.9497,18.7466
26012.0,-9.1171,2.9808,17.7482
26022.0,-8.928,2.8802,16.5607
26032.0,-9.0166,2.7126,15.4618
26042.0,-9.0764,2.4086,14.8441
26052.0,-9.1363,2.1189,14.935
26062.0,-9.0716,1.9992,15.8041
26072.0,-8.5928,2.0518,16.69
26082.0,-7.8769,2.1141,17.0108
26092.0,-6.9384,2.0087,16.2447
26102.0,-5.8969,1.8771,15.1601
26112.0,-5.2098,1.7166,13.6661
26122.0,-4.7333,1.4916,12.0644
26132.0,-4.9775,1.0271,11.224
26142.0,-5.2888,0.8859,11.1139
26152.0,-5.9304,1.0151,11.2097
26162.0,-6.3135,1.2019,11.7531
26172.0,-6.3015,1.2929,12.2727
26182.0,-6.2177,1.2139,12.4858
26192.0,-5.8586,1.2809,12.311
26202.0,-5.0685,1.3048,11.8106
26212.0,-4.2282,1.2713,11.0277
26222.0,-3.7469,1.0008,10.4914
26232.0,-3.3088,0.9361,9.2536
26242.0,-3.1987,0.8691,8.4348
26252.0,-3.371,0.9313,7.5729
26262.0,-3.5003,0.9481,7.0533
26272.0,-3.6607,0.984,7.0222
26282.0,-3.8188,1.0175,7.3167
26292.0,-3.8595,1.0271,7.9799
26302.0,-3.9576,0.8212,8.4946
26312.0,-3.972,0.9002,8.7819
26322.0,-3.9409,0.9146,8.5832
26332.0,-3.8666,0.9553,8.2624
26342.0,-3.5841,0.8428,7.6519
26352.0,-3.3854,0.8954,7.2042
26362.0,-3.4548,0.814,7.0916
26372.0,-3.8235,0.723,7.2999
26382.0,-3.9433,0.7326,7.367
26392.0,-3.984,0.759,7.853
26402.0,-3.9193,0.8978,7.9583
26412.0,-3.6847,0.8691,8.0397
26422.0,-3.4668,0.9313,7.9607
26432.0,-3.2633,0.8787,7.8266
26442.0,-3.2872,0.905,7.8578
26452.0,-3.213,1.1277,7.7045
26462.0,-3.2801,1.2234,7.592
26472.0,-3.2777,1.1827,7.5034
26482.0,-3.1101,1.1756,7.5513
26492.0,-3.3351,1.0822,7.7428
26502.0,-3.2825,1.1157,7.762
26512.0,-3.3399,1.0463,7.9464
26522.0,-3.2226,1.0367,8.2313
26532.0,-3.1891,1.2234,8.1139
26542.0,-3.0813,1.1899,8.1235
26552.0,-2.9808,1.1205,7.9918
26562.0,-2.9616,0.8667,7.8075
26572.0,-2.9185,1.0223,7.7524
26582.0,-2.9281,1.0798,7.7907
26592.0,-3.1675,1.0822,7.9487
26602.0,-3.2896,1.0822,8.1977
26612.0,-3.4524,1.1109,8.4946
26622.0,-3.5602,1.1109,8.7388
26632.0,-3.5434,1.1803,8.7293
26642.0,-3.462,1.2905,8.7053
26652.0,-3.3232,1.324,8.5186
26662.0,-3.383,1.3743,8.6191
26672.0,-3.462,1.2857,8.6239
26682.0,-3.5506,1.0678,8.6742
26692.0,-3.5291,1.0295,8.5473
26702.0,-3.462,0.9146,8.6215
26712.0,-3.4309,0.8404,8.576
26722.0,-3.5075,0.7901,8.6143
26732.0,-3.6559,0.8021,8.6526
26742.0,-3.7924,0.7518,8.8298
26752.0,-3.7948,0.6704,8.9854
26762.0,-3.6607,0.5746,9.0453
26772.0,-3.4093,0.5291,9.0094
26782.0,-3.2609,0.5219,8.9902
26792.0,-3.1747,0.4788,8.9663
26802.0,-3.1508,0.5267,9.0022
26812.0,-3.0622,0.4381,9.0716
26822.0,-3.1244,0.5291,9.4092
26832.0,-3.486,0.5219,9.6462
26842.0,-3.8164,0.5794,10.1083
26852.0,-3.9744,0.6823,10.0628
26862.0,-4.142,0.5626,10.2855
26872.0,-4.1563,0.4022,10.3046
26882.0,-4.0223,0.2562,10.5991
26892.0,-3.7996,0.249,10.3956
26902.0,-3.7326,0.2059,10.5177
26912.0,-3.5434,0.2131,10.07
26922.0,-3.6272,0.0982,10.0772
26932.0,-3.5434,0.1437,9.9264
26942.0,-3.4931,0.0838,9.8857
26952.0,-3.6751,0.0694,9.9719
26962.0,-3.7158,-0.0742,10.07
26972.0,-3.7373,0.1149,10.1442
26982.0,-3.869,0.1772,10.3286
26992.0,-4.0845,0.2083,10.4196
27002.0,-4.0294,0.2131,10.386
27012.0,-3.9265,0.2801,10.2232
27022.0,-3.9409,0.2969,10.1275
27032.0,-3.9049,0.3017,9.9599
27042.0,-3.8547,0.3567,9.9335
27052.0,-3.8044,0.2921,10.0892
27062.0,-3.7278,0.4597,10.0006
27072.0,-3.6943,0.5243,10.0293
27082.0,-3.5434,0.5507,9.8138
27092.0,-3.4357,0.4597,9.5265
27102.0,-3.3998,0.4501,9.5193
27112.0,-3.4668,0.4788,9.4834
27122.0,-3.4907,0.5363,9.5624
27132.0,-3.4812,0.4621,9.3637
27142.0,-3.5506,0.419,9.3111
27152.0,-3.7517,0.4238,9.3637
27162.0,-3.8403,0.3783,9.5816
27172.0,-3.8092,0.4669,9.5792
27182.0,-3.7469,0.5124,9.6199
27192.0,-3.6966,0.4908,9.2967
27202.0,-3.6464,0.5124,9.0501
27212.0,-3.5985,0.4381,9.0333
27222.0,-3.5434,0.4477,9.0764
27232.0,-3.3878,0.4405,9.1051
27242.0,-3.371,0.4788,8.9783
27252.0,-3.3327,0.4046,8.9591
27262.0,-3.4141,0.5243,9.0166
27272.0,-3.4788,0.5148,9.2608
27282.0,-3.4668,0.5962,9.2775
27292.0,-3.6559,0.5124,9.4116
27302.0,-3.8642,0.5531,9.5122
27312.0,-3.814,0.6369,9.6151
27322.0,-3.6943,0.7446,9.4739
27332.0,-3.6152,0.7159,9.4715
27342.0,-3.4979,0.6752,9.256
27352.0,-3.4022,0.6656,9.0908
27362.0,-3.2753,0.7278,9.1051
27372.0,-3.3734,0.7877,9.153
27382.0,-3.3495,0.8571,9.3422
27392.0,-3.565,0.8643,9.912
27402.0,-3.6823,0.9218,9.9575
27412.0,-3.6655,0.984,10.0006
27422.0,-3.474,1.0319,9.9814
27432.0,-3.3184,1.1085,9.8593
27442.0,-3.1556,1.1205,9.6438
27452.0,-3.0718,1.2809,9.4763
27462.0,-2.9951,1.3599,9.3901
27472.0,-2.9712,1.5107,9.4236
27482.0,-3.292,1.5514,9.7947
27492.0,-3.4955,1.6017,9.9766
27502.0,-3.5075,1.5826,10.1801
27512.0,-3.4764,1.5275,10.2975
27522.0,-2.9353,1.5658,10.4339
27532.0,-2.4157,1.6448,10.2735
27542.0,-2.1907,1.5969,9.9503
27552.0,-2.4421,1.6065,9.8306
27562.0,-3.2154,1.7909,9.9742
27572.0,-3.7278,1.913,10.2615
27582.0,-3.9433,2.0351,10.3573
27592.0,-3.9409,2.0877,10.3573
27602.0,-3.8211,1.9513,10.3214
27612.0,-3.802,1.8411,10.1634
27622.0,-3.7302,1.8507,9.8785
27632.0,-3.6943,1.7478,9.8162
27642.0,-3.3495,1.731,9.6247
27652.0,-2.9281,1.7645,9.4739
27662.0,-2.6911,1.7933,9.426
27672.0,-2.5809,1.7933,9.3206
27682.0,-2.5786,1.8172,9.3613
27692.0,-2.6863,1.8052,9.2057
27702.0,-2.6097,1.8842,9.1698
27712.0,-2.569,1.7885,9.1578
27722.0,-2.6624,1.7358,9.2009
27732.0,-2.5307,1.6352,9.1051
27742.0,-2.8683,1.5538,9.232
27752.0,-3.2896,1.5036,9.6367
27762.0,-3.632,1.5203,9.9671
27772.0,-3.8618,1.4461,10.5153
27782.0,-3.8642,1.4293,10.5824
27792.0,-3.8738,1.3791,10.422
27802.0,-3.7469,1.4174,10.1754
27812.0,-3.7206,1.4246,9.9838
27822.0,-3.4572,1.4629,9.5912
27832.0,-3.1268,1.4724,9.2727
27842.0,-2.9497,1.4844,8.9543
27852.0,-3.122,1.5179,8.8514
27862.0,-3.1915,1.4916,9.1099
27872.0,-3.1771,1.6137,9.2943
27882.0,-3.1603,1.6735,9.5146
27892.0,-3.316,1.7214,9.5481
27902.0,-3.5985,1.7454,9.7683
27912.0,-3.8259,1.6568,9.9
27922.0,-3.8595,1.6927,10.1754
27932.0,-3.7685,1.6448,10.0221
27942.0,-3.6799,1.506,9.8426
27952.0,-3.474,1.5514,9.2584
27962.0,-3.5937,1.573,9.2009
27972.0,-3.5243,1.3551,9.1626
27982.0,-3.45,1.2785,9.1195
27992.0,-3.2729,1.3096,9.1746
28002.0,-3.1125,1.4317,9.2967
28012.0,-3.1268,1.5131,9.4595
28022.0,-3.4572,1.5778,9.8809
28032.0,-4.0821,1.4557,10.1442
28042.0,-4.4628,1.324,10.4267
28052.0,-4.4748,1.2067,10.2855
28062.0,-4.051,1.0415,10.2376
28072.0,-3.3806,0.9433,9.9144
28082.0,-2.7294,0.7661,9.6654
28092.0,-2.3511,0.7254,9.3901
28102.0,-2.1811,0.747,9.3087
28112.0,-2.1979,0.7183,9.5313
28122.0,-2.2625,0.7733,9.5529
28132.0,-2.4732,0.7638,9.8258
28142.0,-2.6312,0.8308,10.0676
28152.0,-2.8898,0.8404,10.2855
28162.0,-3.0526,0.9313,10.2017
28172.0,-3.1651,0.9313,10.3358
28182.0,-3.3686,0.8739,10.343
28192.0,-3.5674,0.8428,10.5177
28202.0,-3.6033,0.8859,10.4315
28212.0,-3.541,0.9098,10.4244
28222.0,-3.3686,0.8739,10.2639
28232.0,-3.0789,0.917,10.1897
28242.0,-2.9449,0.917,9.8737
28252.0,-2.6959,0.9481,9.7181
28262.0,-2.636,0.8978,9.402
28272.0,-2.5881,0.9002,9.2416
28282.0,-2.6384,0.8835,9.2296
28292.0,-2.5379,0.9122,9.2296
28302.0,-2.727,0.9361,9.3685
28312.0,-2.9616,0.9361,9.8282
28322.0,-2.9305,0.9385,9.9407
28332.0,-2.8659,0.9457,9.9216
28342.0,-2.7773,0.8906,9.9216
28352.0,-2.7246,0.8428,9.9623
28362.0,-2.7701,0.8284,10.0676
28372.0,-2.7892,0.8739,10.0149
28382.0,-2.6743,0.8499,9.9072
28392.0,-2.6025,0.7638,9.8833
28402.0,-2.5786,0.9026,9.8928
28412.0,-2.5809,0.7997,9.9
28422.0,-2.6935,0.7063,10.0509
28432.0,-2.6647,0.6943,10.2855
28442.0,-2.5881,0.7542,10.3645
28452.0,-2.5235,0.8068,10.3286
28462.0,-2.4421,0.7733,10.1993
28472.0,-2.2362,0.7326,9.8928
28482.0,-2.0686,0.7446,9.663
28492.0,-2.059,0.7997,9.5002
28502.0,-2.1356,0.6728,9.6151
28512.0,-2.138,0.6656,9.7731
28522.0,-2.2146,0.6823,9.7372
28532.0,-2.0662,0.68,9.8785
28542.0,-1.9872,0.7063,9.7731
28552.0,-2.0566,0.735,9.8928
28562.0,-2.0997,0.7733,9.8833
28572.0,-2.1069,0.7973,9.8474
28582.0,-2.1069,0.8547,9.7372
28592.0,-2.1835,0.8643,9.6989
28602.0,-2.2051,0.929,9.6055
28612.0,-2.308,1.1037,9.6079
28622.0,-2.3008,1.1277,9.5648
28632.0,-2.3439,1.1564,9.5074
28642.0,-2.5307,1.1636,9.6127
28652.0,-2.5905,1.1277,9.414
28662.0,-2.6552,1.087,9.3518
28672.0,-2.7749,1.0942,9.4044
28682.0,-2.9784,1.0247,9.3326
28692.0,-3.0526,1.0894,9.4643
28702.0,-3.201,1.1588,9.4715
28712.0,-3.304,1.1756,9.4978
28722.0,-3.146,1.2067,9.4906
28732.0,-2.8228,1.2067,9.3589
28742.0,-2.399,1.1971,8.8801
28752.0,-2.2817,1.063,8.5665
28762.0,-2.5426,1.008,8.3079
28772.0,-2.8371,1.0127,8.3677
28782.0,-3.1627,0.9744,8.4874
28792.0,-3.486,0.996,8.7436
28802.0,-3.5889,0.8954,8.9088
28812.0,-3.5841,0.8787,8.8992
28822.0,-3.4907,0.8236,8.7053
28832.0,-3.4213,0.7829,8.5449
28842.0,-3.213,0.7087,8.157
28852.0,-3.1508,0.5866,7.8506
28862.0,-3.0765,0.5507,7.4986
28872.0,-3.0406,0.5483,7.0988
28882.0,-2.8515,0.6656,6.8163
28892.0,-2.6049,0.6919,6.2848
28902.0,-2.5091,0.7733,5.9496
28912.0,-2.6169,0.7638,5.9065
28922.0,-2.7557,0.7901,6.2082
28932.0,-2.9185,0.8595,6.6511
28942.0,-3.1627,1.0127,6.9528
28952.0,-3.3375,1.0247,7.1874
28962.0,-3.3974,1.0056,7.2688
28972.0,-3.3399,1.0151,7.2305
28982.0,-3.3686,1.1109,7.2808
28992.0,-3.3734,1.1612,7.1419
29002.0,-3.7445,1.2234,7.1635
29012.0,-4.0247,1.2091,7.276
29022.0,-4.1899,1.1205,7.4675
29032.0,-4.0318,1.0271,7.4891
29042.0,-3.7996,0.8667,7.1275
29052.0,-3.4117,0.8021,6.9959
29062.0,-3.1675,0.7973,6.9312
29072.0,-3.1891,0.7757,7.1012
29082.0,-3.4548,0.8691,7.3981
29092.0,-3.8188,0.7757,7.5992
29102.0,-4.0654,0.7877,7.8051
29112.0,-4.142,0.8068,8.0062
29122.0,-4.039,0.8954,8.3941
29132.0,-4.2066,0.9505,8.7891
29142.0,-4.5011,1.1396,9.3518
29152.0,-4.8004,1.1851,9.9
29162.0,-5.0494,1.1037,10.0796
29172.0,-5.3917,1.0104,10.24
29182.0,-5.8945,0.9457,10.5177
29192.0,-6.5505,0.8787,11.0445
29202.0,-7.1251,0.7183,11.9423
29212.0,-7.0868,0.8021,12.1937
29222.0,-6.6798,1.008,12.2846
29232.0,-5.9807,1.1085,12.05
29242.0,-5.4731,1.154,12.2703
29252.0,-5.4612,1.2857,12.9622
29262.0,-6.5481,1.2306,14.6741
29272.0,-7.7309,1.2067,16.8719
29282.0,-8.6479,1.1588,18.5431
29292.0,-8.8394,1.0151,19.7713
29302.0,-8.339,0.838,20.5422
29312.0,-7.6638,0.6081,20.638
29322.0,-7.513,0.4597,20.6667
29332.0,-7.3981,0.4884,20.7122
29342.0,-8.3246,0.8954,21.7465
29352.0,-9.7444,1.1109,23.0801
29362.0,-10.8146,1.4222,24.44
29372.0,-11.8657,1.1923,25.4911
29382.0,-12.05,1.4389,26.3745
29392.0,-11.8681,1.6592,26.7097
29402.0,-10.8146,1.9034,25.5102
29412.0,-9.6702,2.1069,23.7098
29422.0,-8.8346,2.2817,22.4887
29432.0,-8.193,2.2146,21.7944
29442.0,-8.1092,2.0997,21.5574
29452.0,-8.6718,1.8579,21.9883
29462.0,-8.7293,1.5897,22.1847
29472.0,-8.078,1.4102,21.5023
29482.0,-7.1922,1.1588,19.6708
29492.0,-6.3758,0.8691,17.1329
29502.0,-5.6647,0.814,15.2798
29512.0,-4.9656,0.9577,13.544
29522.0,-4.5729,1.0415,12.8449
29532.0,-4.6304,0.747,12.6534
29542.0,-4.4029,0.6129,12.0548
29552.0,-4.1731,0.5842,11.4994
29562.0,-3.462,0.6321,10.6494
29572.0,-2.3248,0.7901,9.1818
29582.0,-1.2665,0.8452,7.6327
29592.0,-0.5483,0.5363,6.0956
29602.0,-0.7302,-0.012,4.1324
29612.0,0.1053,-0.1915,2.9281
29622.0,0.498,-0.4477,2.3894
29632.0,0.395,-0.7422,2.5235
29642.0,0.4717,-0.8571,2.5187
29652.0,0.1628,-0.9768,3.1173
29662.0,0.1748,-0.6943,3.4141
29672.0,0.4166,-0.2658,3.6081
29682.0,0.9601,0.067,2.8802
29692.0,1.4844,0.2562,2.4517
29702.0,1.8052,0.3376,1.6999
29712.0,1.9704,0.1269,1.0678
29722.0,1.9201,0.0144,0.5291
29732.0,1.5826,0.158,0.2562
29742.0,1.1516,-0.1149,0.6776
29752.0,0.8092,-0.2442,0.8978
29762.0,0.5028,-0.316,1.0702
29772.0,0.2801,-0.1891,1.4341
29782.0,0.3112,0.0551,1.719
29792.0,0.3567,0.4525,1.731
29802.0,0.4597,0.4741,1.9896
29812.0,0.6584,0.431,1.5921
29822.0,0.5818,0.3065,1.7286
29832.0,0.2514,0.0934,1.6999
29842.0,0.1053,0.1652,1.5131
29852.0,-0.2107,0.2274,1.166
29862.0,-0.4262,0.3472,1.0798
29872.0,-0.7446,0.498,1.0151
29882.0,-0.9002,0.6321,1.0032
29892.0,-0.917,0.5962,1.1396
29902.0,-1.0127,0.5626,1.3455
29912.0,-0.9744,0.4573,1.075
29922.0,-0.9505,0.3424,1.5586
29932.0,-0.8236,0.249,1.5371
29942.0,-0.6225,0.2442,1.6568
29952.0,-0.4669,0.0551,1.7119
29962.0,-0.4669,-0.0383,1.9992
29972.0,-0.6704,-0.2634,2.071
29982.0,-0.996,-0.486,2.0087
29992.0,-1.3431,-0.4453,1.968
30002.0,-1.3503,-0.237,2.0063
30012.0,-1.4748,-0.2298,2.0135
30022.0,-1.4413,-0.1317,2.1069
30032.0,-1.2115,-0.0335,2.0518
30042.0,-1.1205,-0.1963,1.5921
30052.0,-0.8787,-0.1173,1.9561
30062.0,-1.0774,0.0646,2.4493
30072.0,-1.415,0.3376,3.0095
30082.0,-1.8244,0.1748,3.6536
30092.0,-2.4948,-0.1125,4.7333
30102.0,-2.8012,0.1532,5.0805
30112.0,-3.225,0.5459,5.138
30122.0,-4.3622,1.1085,5.8754
30132.0,-4.8435,1.3743,5.4492
30142.0,-4.3191,1.7334,5.6264
30152.0,-3.8834,1.1612,7.1754
30162.0,-4.8171,0.8882,10.3214
30172.0,-6.0549,0.7254,10.8816
30182.0,-7.7452,0.9313,13.0652
30192.0,-7.8147,1.4676,14.4562
30202.0,-7.5082,1.6113,14.631
30212.0,-6.45,1.4269,14.6717
30222.0,-5.2529,1.6065,13.7691
30232.0,-4.695,1.1372,12.6701
30242.0,-4.6831,1.0343,10.9678
30252.0,-5.1164,1.4796,10.5369
30262.0,-6.3494,1.6759,11.1211
30272.0,-8.0996,1.7214,12.1075
30282.0,-10.2807,1.5275,13.5775
30292.0,-11.3629,1.4317,14.8584
30302.0,-11.0038,1.7693,15.7084
30312.0,-9.7516,2.1428,15.6533
30322.0,-8.0565,2.0758,15.5863
30332.0,-6.869,1.8747,14.6741
30342.0,-6.2968,1.5802,13.7068
30352.0,-6.3638,1.2546,13.1394
30362.0,-7.2018,1.0271,13.125
30372.0,-8.2528,1.0151,13.2471
30382.0,-8.9423,1.1133,13.2615
30392.0,-9.6462,1.2354,12.9814
30402.0,-10.4722,1.3527,12.7874
30412.0,-10.5608,1.5323,12.4355
30422.0,-10.0221,1.9106,11.88
30432.0,-9.074,1.901,11.6957
30442.0,-8.0014,1.5802,11.9159
30452.0,-7.2305,0.9242,12.5001
30462.0,-6.6367,0.3855,12.967
30472.0,-6.098,0.3065,12.6677
30482.0,-6.0525,0.5507,12.22
30492.0,-6.4356,0.7087,11.7747
30502.0,-6.9576,0.747,11.6167
30512.0,-7.2185,0.5722,11.3365
30522.0,-6.9863,0.7997,10.9008
30532.0,-6.2417,1.2761,10.5393
30542.0,-5.3391,1.391,10.4698
30552.0,-4.6902,1.7645,10.8074
30562.0,-4.3958,1.901,11.4946
30572.0,-4.3024,1.8747,12.0237
30582.0,-4.2617,1.98,12.3972
30592.0,-4.1563,2.0446,12.1075
30602.0,-4.1683,2.162,12.0644
30612.0,-4.3144,1.9058,11.9447
30622.0,-4.3838,1.5036,12.1913
30632.0,-4.3335,1.2881,12.1889
30642.0,-4.2569,1.1301,12.627
30652.0,-3.9624,1.0965,12.5696
30662.0,-3.723,0.9361,12.4786
30672.0,-3.4237,1.0032,12.4044
30682.0,-2.7725,1.1827,11.9973
30692.0,-2.2075,1.257,11.5736
30702.0,-1.8411,1.1205,10.7619
30712.0,-1.7238,1.1325,9.9359
30722.0,-2.4086,1.0511,9.9934
30732.0,-2.636,0.8906,9.9503
30742.0,-2.3966,0.9218,9.9144
30752.0,-1.9513,1.0463,9.6869
30762.0,-1.6376,1.2378,9.924
30772.0,-1.5754,1.2953,10.0916
30782.0,-1.8387,1.3886,10.0844
30792.0,-2.2194,1.3431,10.307
30802.0,-2.5115,1.4126,10.2232
30812.0,-2.7031,1.4198,9.8186
30822.0,-2.9951,1.3934,9.6486
30832.0,-3.1556,1.4461,9.3972
30842.0,-3.1651,1.4629,9.1243
30852.0,-3.1699,1.5107,8.8777
30862.0,-3.146,1.403,8.6933
30872.0,-3.2298,1.2426,8.7053
30882.0,-3.3375,1.0606,8.7652
30892.0,-3.3112,0.9337,8.9256
30902.0,-3.4716,0.8356,9.1506
30912.0,-3.4644,0.8643,9.4068
30922.0,-3.5482,0.8787,9.6534
30932.0,-3.474,0.8499,10.1299
30942.0,-3.4333,1.0846,9.8833
30952.0,-3.225,1.1756,9.3278
30962.0,-2.8802,1.1444,8.6981
30972.0,-2.6935,1.3001,8.2744
30982.0,-2.6671,1.3958,7.9871
30992.0,-2.8874,1.4126,7.9727
31002.0,-3.1771,1.4509,8.2289
31012.0,-3.2729,1.4317,8.4707
31022.0,-3.4381,1.3886,8.8969
31032.0,-3.5913,1.3743,9.3087
31042.0,-3.6416,1.4988,9.4092
31052.0,-3.6296,1.5706,9.2775
31062.0,-3.383,1.5945,9.0214
31072.0,-2.9401,1.573,8.6431
31082.0,-2.6121,1.5371,8.2791
31092.0,-2.6073,1.506,8.2408
31102.0,-2.9401,1.5921,8.4108
31112.0,-3.213,1.6999,8.8609
31122.0,-3.3423,1.9106,9.165
31132.0,-3.2825,1.889,9.6367
31142.0,-3.0382,1.9609,9.9335
31152.0,-2.7797,1.8962,9.8138
31162.0,-2.7246,1.9824,9.7636
31172.0,-2.818,1.98,9.7995
31182.0,-2.8299,2.0255,9.7205
31192.0,-2.7461,2.0638,9.4547
31202.0,-2.6839,2.1308,9.2225
31212.0,-2.6863,2.0255,9.0597
31222.0,-2.7701,2.0111,8.9998
31232.0,-2.7701,1.9728,9.0237
31242.0,-2.8228,1.9728,9.1578
31252.0,-2.8898,1.9489,9.5217
31262.0,-2.9951,1.9944,9.7731
31272.0,-3.1244,1.9848,10.0748
31282.0,-3.1723,2.0159,10.0556
31292.0,-3.0191,1.9465,10.1155
31302.0,-2.9161,1.9058,9.7707
31312.0,-2.7342,1.7765,9.5193
31322.0,-2.6983,1.6807,9.2368
31332.0,-2.6863,1.6328,9.0764
31342.0,-2.7174,1.6041,8.9974
31352.0,-2.7031,1.6831,9.1339
31362.0,-2.7054,1.5586,9.2177
31372.0,-2.6887,1.3647,9.3948
31382.0,-3.0143,1.1732,9.4954
31392.0,-3.304,0.9218,9.5912
31402.0,-3.5745,0.7159,9.8521
31412.0,-3.3926,0.6153,10.1227
31422.0,-3.0191,0.7446,10.137
31432.0,-2.7031,0.7422,10.0916
31442.0,-2.5786,0.7829,9.8761
31452.0,-2.5307,0.8356,9.6391
31462.0,-2.5402,0.7805,9.3925
31472.0,-2.5115,0.6943,9.2871
31482.0,-2.5115,0.8045,9.1171
31492.0,-2.6624,0.8332,9.1889
31502.0,-3.0023,0.8906,9.5313
31512.0,-3.2058,0.8739,9.8952
31522.0,-3.3016,0.9529,10.2759
31532.0,-3.292,1.0247,10.3908
31542.0,-3.1603,0.996,10.1897
31552.0,-3.134,0.9577,10.0676
31562.0,-3.3471,0.9912,9.8354
31572.0,-3.4333,1.0582,9.5912
31582.0,-3.3064,0.893,9.4499
31592.0,-3.1891,0.905,9.402
31602.0,-3.2801,0.893,9.5122
31612.0,-3.4189,0.814,9.9647
31622.0,-3.5147,0.8906,10.2999
31632.0,-3.4668,0.8188,10.2807
31642.0,-3.4931,0.8021,10.149
31652.0,-3.3926,0.7398,9.9742
31662.0,-3.2777,0.6273,9.9216
31672.0,-3.1053,0.6273,9.9144
31682.0,-2.9544,0.5459,9.7923
31692.0,-3.055,0.4741,9.7636
31702.0,-3.1244,0.4764,9.821
31712.0,-3.2777,0.5626,10.1083
31722.0,-3.3519,0.6393,10.4339
31732.0,-3.1675,0.6273,10.5297
31742.0,-3.0023,0.7709,10.319
31752.0,-2.9257,0.7901,10.1418
31762.0,-2.9281,0.9313,10.0509
31772.0,-3.213,0.9529,9.9455
31782.0,-3.5889,0.9146,9.9144
31792.0,-3.814,0.8787,10.137
31802.0,-3.948,0.8164,10.4004
31812.0,-3.9528,0.8475,10.5129
31822.0,-3.8882,0.7638,10.6231
31832.0,-3.6823,0.7542,10.5441
31842.0,-3.2465,0.7159,10.2879
31852.0,-2.9856,0.6225,9.7612
31862.0,-2.8922,0.4836,9.517
31872.0,-2.8491,0.5531,9.3565
31882.0,-2.9951,0.4836,9.505
31892.0,-3.1675,0.5962,9.7923
31902.0,-3.2753,0.5866,9.9551
31912.0,-3.4477,0.6273,10.1227
31922.0,-3.5554,0.6345,10.0748
31932.0,-3.6775,0.7374,9.9647
31942.0,-3.5338,0.7326,9.8881
31952.0,-3.3088,0.6632,9.6965
31962.0,-3.0526,0.6057,9.426
31972.0,-2.8467,0.5339,9.2392
31982.0,-2.7198,0.5507,9.0621
31992.0,-2.7414,0.5483,9.0573
32002.0,-2.806,0.6105,9.2033
32012.0,-2.8922,0.6871,9.3829
32022.0,-2.9497,0.6536,9.6654
32032.0,-2.9904,0.7518,9.8952
32042.0,-3.0622,0.8284,10.082
32052.0,-3.1268,0.8499,10.1658
32062.0,-3.0502,0.9744,10.0556
32072.0,-2.7174,0.9529,9.8809
32082.0,-2.6384,1.0415,9.5888
32092.0,-2.5235,1.0247,9.4595
32102.0,-2.4732,1.0008,9.517
32112.0,-2.5259,1.0487,9.5433
32122.0,-2.7414,1.087,9.7875
32132.0,-2.8299,0.9912,9.979
32142.0,-2.8371,1.1468,9.9431
32152.0,-2.8683,1.0798,10.0078
32162.0,-3.1699,1.0918,10.161
32172.0,-3.4405,1.0774,10.1059
32182.0,-3.4979,1.1732,10.149
32192.0,-3.5554,1.1444,10.2951
32202.0,-3.5865,1.1971,10.3118
32212.0,-3.7206,1.3072,10.3669
32222.0,-3.7373,1.3647,10.3573
32232.0,-3.5195,1.3791,10.2185
32242.0,-3.2082,1.4605,9.9311
32252.0,-2.885,1.3934,9.6965
32262.0,-2.9736,1.3192,9.5361
32272.0,-3.6057,1.2833,9.7588
32282.0,-4.2234,1.3144,9.8976
32292.0,-4.3024,1.4102,10.1442
32302.0,-3.9863,1.5323,10.0724
32312.0,-3.7278,1.6352,10.0054
32322.0,-3.45,1.6975,9.8497
32332.0,-3.3806,1.7166,9.5409
32342.0,-3.3423,1.7861,9.2727
32352.0,-3.4357,1.9034,9.2799
32362.0,-3.6583,1.9297,9.1746
32372.0,-3.8738,1.98,9.1482
32382.0,-4.0223,1.9225,9.1339
32392.0,-4.1372,1.8866,9.1363
32402.0,-4.1899,1.822,9.1387
32412.0,-4.1875,1.7837,8.9807
32422.0,-4.1013,1.8507,8.9663
32432.0,-3.8475,1.8507,9.1219
32442.0,-3.5506,1.9058,8.9615
32452.0,-3.2777,1.8938,9.0573
32462.0,-2.9425,1.9297,8.7987
32472.0,-2.7126,1.9106,8.7149
32482.0,-2.7366,2.0159,8.9112
32492.0,-2.794,2.059,8.9447
32502.0,-2.9904,1.9848,9.0094
32512.0,-3.201,2.0327,9.153
32522.0,-3.2968,2.0327,9.0381
32532.0,-3.4884,2.1308,9.0956
32542.0,-3.6559,2.1931,9.1123
32552.0,-3.8499,2.1284,9.1937
32562.0,-3.8618,2.1955,9.2847
32572.0,-3.6559,2.2458,9.1578
32582.0,-3.4189,2.217,9.1075
32592.0,-3.0909,2.1811,8.8921
32602.0,-2.8276,2.0925,8.655
32612.0,-2.7533,2.1332,8.5186
32622.0,-2.7821,2.059,8.4635
32632.0,-2.8539,2.0016,8.406
32642.0,-2.8108,2.0662,8.5976
32652.0,-2.7964,1.9944,8.5976
32662.0,-2.9161,1.9489,8.6431
32672.0,-2.9209,1.8723,8.5281
32682.0,-2.8754,1.8172,8.6215
32692.0,-2.8299,1.7095,8.5329
32702.0,-3.1867,1.6305,8.6215
32712.0,-3.5171,1.6137,8.6479
32722.0,-3.6559,1.4844,8.8418
32732.0,-3.5817,1.5443,8.9591
32742.0,-3.4285,1.5514,8.995
32752.0,-3.2513,1.5562,8.8011
32762.0,-3.0335,1.4844,8.7867
32772.0,-2.8228,1.4365,8.8059
32782.0,-2.8276,1.3719,8.5425
32792.0,-3.0622,1.3479,8.576
32802.0,-3.4788,1.4054,8.6095
32812.0,-3.7278,1.3264,8.7939
32822.0,-3.7876,1.3336,8.9447
32832.0,-3.7996,1.2761,8.8729
32842.0,-3.6919,1.2737,8.8418
32852.0,-3.5219,1.2833,8.6598
32862.0,-3.3519,1.1037,8.576
32872.0,-3.2322,0.9313,8.2935
32882.0,-2.7964,0.996,8.0373
32892.0,-2.5833,0.9792,7.75
32902.0,-2.7342,0.9002,7.5585
32912.0,-2.9904,0.8284,7.4436
32922.0,-3.2968,0.8547,7.5226
32932.0,-3.4572,0.9697,7.5776
32942.0,-3.5626,0.9601,7.7141
32952.0,-3.8786,0.996,7.8003
32962.0,-4.1444,0.9481,7.9727
32972.0,-3.96,0.8188,7.6591
32982.0,-3.4788,0.6369,7.2425
32992.0,-2.9113,0.577,6.845
33002.0,-2.4157,0.4525,6.4332
33012.0,-2.32,0.4357,6.0454
33022.0,-2.3655,0.3089,6.1316
33032.0,-2.6217,0.3855,6.1842
33042.0,-2.7509,0.2562,6.3111
33052.0,-2.715,0.1963,6.4284
33062.0,-2.6456,0.2251,6.4979
33072.0,-2.4445,0.2753,6.2776
33082.0,-2.4397,0.3472,6.3518
33092.0,-2.4134,0.4764,6.3087
33102.0,-2.3798,0.5028,6.292
33112.0,-2.5402,0.5004,6.4907
33122.0,-2.8443,0.6369,6.8331
33132.0,-3.1484,0.6249,7.0581
33142.0,-3.4716,0.6488,7.3334
33152.0,-3.8283,0.6225,7.6878
33162.0,-3.8571,0.723,8.2504
33172.0,-4.1515,0.7446,8.667
33182.0,-4.391,0.6488,9.0118
33192.0,-4.3335,0.6057,9.2608
33202.0,-4.5059,0.668,9.1698
33212.0,-4.8746,0.577,9.2249
33222.0,-5.3199,0.5818,9.3709
33232.0,-5.5881,0.4836,9.3565
33242.0,-5.9616,0.5914,9.5481
33252.0,-6.0501,0.7278,10.1658
33262.0,-5.928,0.7159,10.659
33272.0,-5.9735,0.6129,10.805
33282.0,-6.1986,0.5578,11.0899
33292.0,-6.5146,0.5674,11.3174
33302.0,-6.7205,0.644,11.4586
33312.0,-7.0653,0.7638,11.9566
33322.0,-7.1754,0.8021,12.9
33332.0,-7.2209,0.735,13.6853
33342.0,-7.4675,0.4836,14.7794
33352.0,-7.7093,0.3639,15.615
33362.0,-7.7548,0.2251,16.2255
33372.0,-7.9823,0.3424,16.9797
33382.0,-7.6591,0.4453,17.1281
33392.0,-7.6231,0.7973,17.2813
33402.0,-7.4436,0.9649,17.0707
33412.0,-7.0222,1.0726,17.7243
33422.0,-7.4843,1.075,18.4593
33432.0,-8.4348,0.8667,20.583
33442.0,-9.3613,0.8954,21.8662
33452.0,-10.1849,0.996,22.812
33462.0,-10.3573,0.9625,23.6499
33472.0,-9.8904,1.2809,24.0569
33482.0,-10.0533,1.2139,24.8135
33492.0,-10.0485,1.1779,25.1966
33502.0,-9.9383,1.1923,24.926
33512.0,-9.7636,1.1396,24.8398
33522.0,-9.481,1.3815,24.7369
33532.0,-9.56,1.6185,24.792
33542.0,-9.4044,1.7765,25.3235
33552.0,-9.098,1.8842,24.756
33562.0,-8.6886,1.9321,24.4568
33572.0,-8.3318,2.1763,24.0809
33582.0,-7.8793,2.1907,22.5606
33592.0,-7.4747,2.15,21.1911
33602.0,-7.0126,2.15,19.3619
33612.0,-6.3135,2.3152,18.5646
33622.0,-5.9879,2.5426,17.3005
33632.0,-6.2465,2.4517,17.7817
33642.0,-6.1363,2.2051,18.1624
33652.0,-5.4037,2.3703,15.5264
33662.0,-3.8858,2.0255,12.3062
33672.0,-2.2601,1.9417,9.0644
33682.0,-0.3879,1.8172,5.3008
33692.0,0.7542,1.7693,3.055
33702.0,1.1612,1.5323,1.245
33712.0,0.747,1.1181,1.1277
33722.0,0.182,0.9744,1.2929
33732.0,-0.6704,0.6393,2.2817
33742.0,-1.2498,0.4286,2.9975
33752.0,-1.7645,0.3208,4.1827
33762.0,-1.8986,0.3017,4.8004
33772.0,-1.6352,0.2873,5.0566
33782.0,-0.9768,0.261,4.4604
33792.0,-0.5746,0.249,4.0582
33802.0,0.3639,0.2634,2.6911
33812.0,0.9673,0.079,1.5323
33822.0,1.2617,0.0096,0.5267
33832.0,1.1636,0.0335,-0.0982
33842.0,1.0798,0.3615,-0.51
33852.0,0.9625,0.2418,-0.3855
33862.0,0.6249,0.2777,0.4717
33872.0,0.249,0.3639,1.2019
33882.0,0.146,0.6249,1.6496
33892.0,0.1532,0.7159,2.5139
33902.0,0.4214,0.8715,2.4038
33912.0,0.656,0.9864,2.2505
33922.0,0.7159,0.7877,1.6568
33932.0,0.6823,0.723,1.2809
33942.0,0.5028,0.5052,0.8882
33952.0,0.3184,0.2993,0.5818
33962.0,0.1508,0.2634,0.4597
33972.0,-0.1939,0.1053,0.5052
33982.0,-0.3065,0.0958,0.5124
33992.0,-0.498,0.0742,0.7111
34002.0,-0.4932,0.1149,0.7973
34012.0,-0.6249,0.0622,0.8404
34022.0,-0.4501,0.103,0.8021
34032.0,-0.3304,0.0982,0.7446
34042.0,-0.2921,0.1389,0.6057
34052.0,-0.3543,-0.0383,0.4741
34062.0,-0.3711,-0.0479,0.5219
34072.0,-0.5722,-0.0287,0.5363
34082.0,-0.7661,0.0455,0.6153
34092.0,-0.8667,0.0479,0.8021
34102.0,-0.9074,0.0838,0.9361
34112.0,-0.9625,0.067,0.9433
34122.0,-1.0463,0.0024,0.7709
34132.0,-1.1013,0.1317,0.6464
34142.0,-1.2354,0.0599,0.3256
34152.0,-1.3001,0.1006,0.1748
34162.0,-1.3575,0.0263,0.1963
34172.0,-1.3623,0.0311,0.6488
34182.0,-1.4509,0.0455,1.0463
34192.0,-1.6472,-0.0622,1.2282
34202.0,-1.6424,-0.2011,1.2641
34212.0,-1.6999,-0.2729,1.652
34222.0,-1.7526,-0.2658,1.8148
34232.0,-1.98,-0.2729,2.2314
34242.0,-2.2122,-0.0359,3.0813
34252.0,-2.2458,0.5243,4.1539
34262.0,-2.5546,1.7717,5.8395
34272.0,-2.8515,2.15,5.1882
34282.0,-3.541,1.9656,7.1323
34292.0,-3.4237,1.391,6.608
34302.0,-3.0622,0.8906,7.4148
34312.0,-2.7102,-0.5267,4.1563
34322.0,-3.6416,-0.146,10.0796
34332.0,-2.8276,0.5938,11.9207
34342.0,-1.415,1.0726,12.9694
34352.0,-0.4405,0.7254,15.2343
34362.0,0.1676,1.2402,15.3899
34372.0,-1.2665,1.6592,14.6214
34382.0,-3.6344,1.9992,13.8696
34392.0,-4.1108,2.3559,11.8034
34402.0,-3.893,2.5043,10.2544
34412.0,-4.9919,2.0111,10.8362
34422.0,-6.4117,1.6568,11.9231
34432.0,-8.1355,1.7047,14.2886
34442.0,-8.576,1.8747,16.6804
34452.0,-7.6878,2.1476,20.0323
34462.0,-5.9664,2.8946,21.0594
34472.0,-4.1084,3.0718,21.2007
34482.0,-2.4038,2.8012,19.0028
34492.0,-2.1261,2.6312,16.3476
34502.0,-2.8635,2.3104,14.382
34512.0,-4.1755,2.2697,14.2575
34522.0,-5.9616,2.569,15.8807
34532.0,-7.4388,2.8395,18.2534
34542.0,-8.2265,2.9928,20.2119
34552.0,-8.8849,2.9066,21.1264
34562.0,-9.0644,3.0358,20.9397
34572.0,-8.4013,3.1101,19.5367
34582.0,-7.6207,2.9042,18.5742
34592.0,-7.0102,2.6408,17.6141
34602.0,-6.8091,2.4181,16.4506
34612.0,-7.2496,2.2386,15.6581
34622.0,-7.8793,2.2266,15.8424
34632.0,-7.9607,2.4469,16.5248
34642.0,-7.6686,2.5355,17.1138
34652.0,-7.3981,2.6001,16.9079
34662.0,-7.0461,2.2793,15.773
34672.0,-6.8857,1.8244,14.7722
34682.0,-6.7301,1.3862,13.5584
34692.0,-6.4859,1.0056,12.7252
34702.0,-6.3375,0.7087,12.1578
34712.0,-6.3375,0.8499,12.0309
34722.0,-6.5505,0.8045,12.3397
34732.0,-6.4811,0.6967,12.5504
34742.0,-6.1986,0.5243,12.4498
34752.0,-6.0741,0.1293,12.3661
34762.0,-5.6168,-0.0215,12.2846
34772.0,-4.9752,-0.0263,12.2176
34782.0,-4.1707,-0.1484,11.892
34792.0,-3.6009,-0.2682,11.0612
34802.0,-3.3351,-0.2203,10.2185
34812.0,-3.5171,0.0144,8.7747
34822.0,-4.0223,0.0982,8.2408
34832.0,-4.4125,0.4286,7.9823
34842.0,-4.5179,0.6752,8.2576
34852.0,-4.3694,0.7494,8.4707
34862.0,-4.0893,0.4884,8.4827
34872.0,-3.486,0.3543,8.5329
34882.0,-2.7749,0.34,8.3055
34892.0,-2.3152,0.4573,8.1954
34902.0,-1.9417,0.4214,7.9296
34912.0,-1.4485,0.4477,7.434
34922.0,-1.2689,0.3759,6.6511
34932.0,-1.1756,0.1867,6.1914
34942.0,-1.0271,0.2849,5.6862
34952.0,-0.8045,0.237,5.3678
34962.0,-0.6656,0.1939,5.3367
34972.0,-0.8188,0.1724,5.4612
34982.0,-1.3982,0.316,5.612
34992.0,-1.8914,0.5339,5.9089
35002.0,-2.3894,0.5962,6.4715
35012.0,-2.7007,0.7278,6.9001
35022.0,-2.624,0.735,7.3023
35032.0,-2.3391,0.4884,7.343
35042.0,-1.7095,0.2203,7.1108
35052.0,-1.1612,0.1341,7.0246
35062.0,-1.1875,0.3352,6.7684
35072.0,-1.8268,0.328,6.7373
35082.0,-2.7821,0.8332,6.9983
35092.0,-3.9313,1.154,7.7261
35102.0,-4.7118,1.3479,8.7173
35112.0,-4.5442,1.2617,9.2775
35122.0,-4.0342,1.1564,9.3518
35132.0,-3.4093,0.9146,9.3972
35142.0,-3.3471,0.6776,9.6295
35152.0,-3.8834,0.8523,9.517
35162.0,-4.6639,1.0894,9.7348
35172.0,-5.3702,1.0056,10.3717
35182.0,-5.8969,0.9122,11.0828
35192.0,-5.9783,0.8978,11.461
35202.0,-5.9807,0.8332,11.7819
35212.0,-5.6144,0.9002,11.8489
35222.0,-4.9416,1.0175,11.6286
35232.0,-4.4987,0.9218,11.3605
35242.0,-4.4556,0.7661,10.6422
35252.0,-4.3144,0.759,10.2161
35262.0,-4.1061,0.6728,9.6079
35272.0,-3.9792,0.5483,9.3948
35282.0,-3.8235,0.5076,9.2296
35292.0,-3.8355,0.431,9.2967
35302.0,-4.0606,0.5363,9.3518
35312.0,-4.197,0.4621,9.4619
35322.0,-4.3144,0.5028,9.7468
35332.0,-4.3958,0.5124,9.6606
35342.0,-4.5394,0.4142,9.6319
35352.0,-4.707,0.3855,9.5122
35362.0,-4.7405,0.3567,9.5361
35372.0,-4.5394,0.3735,9.4212
35382.0,-4.3886,0.3711,9.268
35392.0,-4.446,0.3903,9.1004
35402.0,-4.3742,0.3735,8.9447
35412.0,-4.4532,0.3783,8.9711
35422.0,-4.6112,0.3783,9.0597
35432.0,-4.6471,0.4884,9.268
35442.0,-4.7381,0.656,9.402
35452.0,-4.5969,0.7901,9.426
35462.0,-4.6256,0.9313,9.2249
35472.0,-4.5131,0.9744,9.0261
35482.0,-4.4029,1.0343,8.8873
35492.0,-4.4005,1.0175,8.8753
35502.0,-4.3287,0.9744,8.8873
35512.0,-4.5825,0.929,9.0477
35522.0,-4.865,0.8523,9.2847
35532.0,-4.9704,0.8475,9.4858
35542.0,-5.114,0.7733,9.6007
35552.0,-5.0901,0.6919,9.6151
35562.0,-4.9009,0.7087,9.4355
35572.0,-4.7884,0.6632,9.2871
35582.0,-4.7381,0.6153,9.1051
35592.0,-4.6807,0.6369,8.928
35602.0,-4.695,0.6608,8.9423
35612.0,-4.7142,0.6369,8.7987
35622.0,-4.5873,0.644,8.8298
35632.0,-4.6543,0.5459,8.8633
35642.0,-4.8076,0.5578,9.1387
35652.0,-4.9009,0.6201,9.2919
35662.0,-5.1404,0.5171,9.5481
35672.0,-4.9895,0.4525,9.5888
35682.0,-4.6495,0.6225,9.5409
35692.0,-4.5777,0.5387,9.2967
35702.0,-4.6735,0.565,9.0022
35712.0,-5.1404,0.4477,8.928
35722.0,-5.4109,0.4621,9.1698
35732.0,-5.5785,0.4884,9.2991
35742.0,-5.4779,0.589,9.3302
35752.0,-5.4061,0.5722,9.2488
35762.0,-5.1715,0.7398,9.2416
35772.0,-5.0781,0.7254,9.1387
35782.0,-5.0063,0.7757,8.9735
35792.0,-5.0613,0.7997,9.2201
35802.0,-5.2433,0.8643,9.3015
35812.0,-5.2337,0.8045,9.2847
35822.0,-5.1523,0.8595,9.3039
35832.0,-5.1404,0.9194,9.3637
35842.0,-5.2098,0.8859,9.2249
35852.0,-5.2313,1.0199,9.3134
35862.0,-5.2074,0.9529,9.3134
35872.0,-5.272,0.984,9.2536
35882.0,-5.3103,1.0271,9.4763
35892.0,-5.1954,1.0295,9.5936
35902.0,-5.1475,1.0989,9.833
35912.0,-5.1619,1.1468,9.8402
35922.0,-5.1978,1.1133,10.0126
35932.0,-5.0254,1.1109,9.7779
35942.0,-4.9033,1.154,9.6175
35952.0,-4.7405,1.2641,9.5146
35962.0,-4.6184,1.3048,9.5313
35972.0,-4.3718,1.3024,9.3901
35982.0,-4.2808,1.1516,9.268
35992.0,-4.1013,1.1875,9.3063
36002.0,-4.0175,1.1588,9.1794
36012.0,-3.8164,1.1923,9.1435
36022.0,-3.9456,1.2737,9.347
36032.0,-3.9887,1.4581,9.4691
36042.0,-3.9672,1.4557,9.517
36052.0,-4.0079,1.3958,9.5768
36062.0,-3.9025,1.2857,9.5864
36072.0,-3.8116,1.2617,9.7851
36082.0,-3.6559,1.2306,9.821
36092.0,-3.5267,1.1947,9.7133
36102.0,-3.5195,1.2498,9.5098
36112.0,-3.541,1.1061,9.4906
36122.0,-3.6224,1.1947,9.4954
36132.0,-3.7541,1.0965,9.6582
36142.0,-3.5458,1.1971,9.5696
36152.0,-3.4117,1.2234,9.3326
36162.0,-3.45,1.2713,9.2608
36172.0,-3.3782,1.506,9.1075
36182.0,-3.2872,1.5227,9.177
36192.0,-3.383,1.5921,9.3134
36202.0,-3.4453,1.664,9.7372
36212.0,-3.4692,1.6759,10.1203
36222.0,-3.2657,1.8028,10.082
36232.0,-2.9401,1.7502,9.979
36242.0,-2.6719,1.719,9.572
36252.0,-2.387,1.7621,9.1315
36262.0,-2.2841,1.8555,8.7676
36272.0,-2.5235,1.8411,9.0453
36282.0,-2.5211,2.0111,9.1842
36292.0,-2.8276,1.9249,9.9934
36302.0,-2.9425,1.8364,10.1011
36312.0,-3.0095,1.6903,10.3621
36322.0,-2.7557,1.6209,9.9216
36332.0,-2.4181,1.6161,9.5313
36342.0,-1.8986,1.6592,8.9376
36352.0,-1.5897,1.7238,8.6526
36362.0,-1.6688,1.7142,8.4348
36372.0,-2.3056,1.7861,8.7604
36382.0,-2.8252,1.8723,9.098
36392.0,-3.1532,1.9489,9.4739
36402.0,-3.2417,2.0159,9.6079
36412.0,-3.0765,2.229,9.7157
36422.0,-2.7533,2.375,9.3853
36432.0,-2.5809,2.3966,8.9376
36442.0,-2.3846,2.3655,8.7676
36452.0,-2.3846,2.2913,8.3558
36462.0,-2.4804,2.4157,8.4707
36472.0,-2.7821,2.4038,9.0261
36482.0,-2.9329,2.5331,9.4403
36492.0,-3.2082,2.5067,9.3877
36502.0,-3.4117,2.4038,9.1435
36512.0,-3.6416,2.3487,9.0573
36522.0,-3.9983,2.2075,8.9639
36532.0,-4.2042,2.1763,9.0022
36542.0,-4.3263,2.1021,9.2153
36552.0,-4.3383,2.2601,9.3087
36562.0,-4.0701,2.2338,9.426
36572.0,-3.8786,2.2817,9.4523
36582.0,-3.6296,2.3415,9.4427
36592.0,-3.6129,2.32,9.2919
36602.0,-3.5314,2.3942,9.0621
36612.0,-3.5338,2.3798,9.0046
36622.0,-3.4261,2.4421,8.8394
36632.0,-3.5291,2.4804,9.1435
36642.0,-3.5626,2.5474,9.2703
36652.0,-3.6176,2.49,9.4284
36662.0,-3.6536,2.5187,9.6127
36672.0,-3.7445,2.5426,9.5265
