timestamp_ms,ax,ay,az
7562.0,-1.6879,0.7805,7.3789
7572.0,-2.2936,0.7111,7.0174
7582.0,-2.6791,0.7925,7.3143
7592.0,-3.2226,0.6297,7.9368
7602.0,-3.158,0.6249,8.5928
7612.0,-2.9042,0.5171,8.6479
7622.0,-2.6312,0.7709,8.5162
7632.0,-1.9968,0.8595,8.3055
7642.0,-2.9305,0.2418,8.6407
7652.0,-3.146,0.3184,8.6933
7662.0,-3.0981,0.4573,8.7891
7672.0,-3.0837,0.5938,9.0405
7682.0,-3.0215,0.6632,9.4978
7692.0,-2.6839,0.6057,9.5984
7702.0,-2.411,0.5722,9.5672
7712.0,-2.4684,0.2921,9.5265
7722.0,-2.3822,0.0407,10.0676
7732.0,-2.5833,-0.4477,10.8505
7742.0,-2.9664,-0.6943,11.8537
7752.0,-3.0813,-1.0127,11.5927
7762.0,-3.0622,-1.0918,11.1139
7772.0,-2.6073,-1.1157,10.5369
7782.0,-2.6624,-1.2091,10.1466
7792.0,-3.2753,-1.1372,10.1131
7802.0,-3.814,-0.6488,10.5465
7812.0,-4.3742,0.0,10.8936
7822.0,-4.7453,0.838,11.3006
7832.0,-4.7453,1.4174,11.1306
7842.0,-4.4963,1.6089,10.9702
7852.0,-4.4365,1.3527,11.1354
7862.0,-4.276,1.0247,10.8888
7872.0,-3.6392,1.3982,10.3382
7882.0,-3.1795,1.4676,9.7659
7892.0,-2.8754,1.166,8.904
7902.0,-2.3703,1.1181,7.9487
7912.0,-2.1979,1.3072,7.1778
7922.0,-2.3056,1.2498,7.8697
7932.0,-2.4612,1.4844,8.9639
7942.0,-2.5738,1.98,10.0724
7952.0,-2.5833,2.1763,10.6398
7962.0,-2.4708,1.7717,11.0732
7972.0,-2.3894,1.3671,11.0038
7982.0,-1.9537,1.4796,10.3645
7992.0,-1.8364,1.6209,9.7755
8002.0,-1.9609,1.7502,9.6247
8012.0,-1.7693,2.2075,9.3709
8022.0,-1.5083,2.3391,9.4619
8032.0,-1.5203,1.9489,10.2472
8042.0,-1.4365,1.7238,10.4507
8052.0,-1.7645,1.6496,10.7117
8062.0,-2.3894,1.336,10.9247
8072.0,-3.0095,0.8356,11.3365
8082.0,-3.3639,0.3472,11.3988
8092.0,-3.565,0.1389,11.5233
8102.0,-3.4117,0.2227,11.2767
8112.0,-3.2825,0.3017,10.8864
8122.0,-3.5793,0.5363,10.3717
8132.0,-3.7924,0.838,9.6462
8142.0,-4.9536,0.8523,10.2185
8152.0,-5.8275,0.9625,10.6518
8162.0,-6.5218,1.2881,11.3461
8172.0,-6.6846,1.3072,11.6526
8182.0,-6.5984,1.2641,11.6861
8192.0,-6.2537,0.9601,11.552
8202.0,-5.8323,0.7925,11.1091
8212.0,-5.272,0.7422,10.7284
8222.0,-4.4867,1.0223,10.0604
8232.0,-3.7278,1.166,9.3757
8242.0,-3.0742,1.0702,8.7843
8252.0,-2.5402,1.1995,8.4587
8262.0,-2.0662,1.1564,7.865
8272.0,-2.1811,0.8547,8.5114
8282.0,-2.7031,0.6321,8.9663
8292.0,-2.8084,1.0295,9.3158
8302.0,-2.8108,1.2594,9.074
8312.0,-2.5786,1.3599,8.5904
8322.0,-2.1955,1.5419,7.5776
8332.0,-1.8148,1.6281,7.0126
8342.0,-1.5706,1.6568,6.6272
8352.0,-1.7334,1.4365,7.2209
8362.0,-1.8675,1.166,7.2664
8372.0,-2.375,0.9098,7.8362
8382.0,-2.7581,0.7877,8.6215
8392.0,-2.7198,1.0008,8.5832
8402.0,-2.7126,1.0439,8.7412
8412.0,-2.6767,0.8452,9.1459
8422.0,-2.9185,0.3376,9.7612
8432.0,-3.0095,-0.1676,10.0054
8442.0,-3.1963,-0.6081,10.3262
8452.0,-3.0574,-0.6464,10.2185
8462.0,-2.6073,-0.2705,10.2185
8472.0,-2.1859,0.103,10.3406
8482.0,-2.071,0.5698,10.7548
8492.0,-2.162,0.9026,10.7978
8502.0,-2.3032,1.3144,10.7859
8512.0,-2.3056,1.8747,10.3286
8522.0,-2.3487,2.3655,9.8785
8532.0,-2.545,2.7581,9.4547
8542.0,-2.6288,2.9688,8.8897
8552.0,-2.6073,3.0885,8.5305
8562.0,-2.3631,3.0263,8.2744
8572.0,-2.2386,2.715,8.6503
8582.0,-2.2051,2.4373,9.0908
8592.0,-1.9585,2.3942,9.2751
8602.0,-1.506,2.4325,8.916
8612.0,-0.9744,2.4493,8.2432
8622.0,-0.5124,2.6097,7.7452
8632.0,-0.2873,2.6935,7.173
8642.0,-0.3567,2.6528,7.2257
8652.0,-0.6895,2.5786,7.6184
8662.0,-1.0127,2.5953,8.0062
8672.0,-1.2378,2.4086,8.3534
8682.0,-1.233,2.3918,8.4779
8692.0,-1.1588,2.6145,8.3653
8702.0,-1.2163,2.6001,8.4084
8712.0,-1.3767,2.8252,9.019
8722.0,-2.0039,3.201,9.8019
8732.0,-2.4565,2.7964,10.8816
8742.0,-2.6959,1.7765,11.2216
8752.0,-2.6983,0.8619,11.2456
8762.0,-2.2218,0.103,10.3525
8772.0,-2.3296,-0.5052,10.1682
8782.0,-2.5618,-0.9122,10.1155
8792.0,-2.9113,-0.8188,10.5824
8802.0,-3.2513,-0.4118,10.8146
8812.0,-3.8379,-0.1125,11.3222
8822.0,-4.2545,0.3496,11.2432
8832.0,-4.7716,0.6273,11.4539
8842.0,-5.1499,0.6105,11.6286
8852.0,-5.3391,0.8619,11.8489
8862.0,-5.3271,1.0918,11.9471
8872.0,-5.1523,1.0367,11.9758
8882.0,-4.786,0.8859,11.3365
8892.0,-4.0366,1.1588,10.4411
8902.0,-3.3064,1.3455,8.7987
8912.0,-2.7725,1.3024,8.4707
8922.0,-2.4852,1.1732,8.4611
8932.0,-2.6073,1.2881,8.2241
8942.0,-3.6966,1.1277,9.5553
8952.0,-4.1587,1.1779,10.6949
8962.0,-4.2234,1.2139,11.2408
8972.0,-3.474,1.257,10.4746
8982.0,-2.8228,1.2115,9.7971
8992.0,-2.5738,0.7733,8.9854
9002.0,-2.5067,0.7135,8.4276
9012.0,-2.3391,0.7853,7.9224
9022.0,-2.5618,0.9553,8.0182
9032.0,-2.9305,1.008,8.5234
9042.0,-3.1699,1.0415,9.1937
9052.0,-3.1196,0.9529,9.2273
9062.0,-3.3279,0.6393,9.6678
9072.0,-3.1939,0.5531,9.5313
9082.0,-3.4093,0.419,9.9024
9092.0,-3.6583,0.2059,9.8737
9102.0,-3.9025,0.0168,9.8857
9112.0,-4.1492,-0.1053,10.0197
9122.0,-4.2282,-0.2251,10.0197
9132.0,-4.3622,-0.2059,9.663
9142.0,-4.7884,-0.3232,9.9982
9152.0,-4.944,-0.4908,10.6398
9162.0,-4.8147,-0.5195,11.5257
9172.0,-4.6711,-0.4597,12.3134
9182.0,-4.4053,-0.2729,12.1506
9192.0,-4.0845,0.0886,11.5041
9202.0,-4.2018,0.1293,10.6734
9212.0,-4.4532,0.1604,10.1035
9222.0,-4.786,0.4908,10.2807
9232.0,-4.9656,0.8859,10.4722
9242.0,-5.0853,1.3072,10.5728
9252.0,-5.1882,1.5347,10.5632
9262.0,-5.5761,1.47,11.0445
9272.0,-5.5952,1.6281,11.3174
9282.0,-5.2984,1.8387,11.2647
9292.0,-5.1763,1.743,11.6071
9302.0,-4.6304,1.6472,10.999
9312.0,-3.7206,1.5347,9.9431
9322.0,-2.7102,1.3431,8.9447
9332.0,-2.0566,1.245,7.7716
9342.0,-1.9968,1.1564,7.2784
9352.0,-2.2553,0.9936,7.4484
9362.0,-2.8084,0.814,8.2384
9372.0,-3.4788,0.838,9.3781
9382.0,-3.7134,0.9481,10.3525
9392.0,-3.8666,0.8523,10.6183
9402.0,-3.5123,0.9218,10.2089
9412.0,-3.0502,0.996,9.4355
9422.0,-2.6935,1.063,8.5904
9432.0,-2.4421,1.063,7.9727
9442.0,-2.2362,1.1947,7.8243
9452.0,-2.0973,1.2881,7.6878
9462.0,-2.047,1.3096,7.8075
9472.0,-2.1572,1.2641,7.8626
9482.0,-2.4565,1.0702,8.3797
9492.0,-2.648,1.0247,8.7628
9502.0,-2.9975,0.9313,9.3996
9512.0,-3.3016,0.8739,9.9144
9522.0,-3.6272,0.9146,10.0221
9532.0,-3.6464,0.8116,9.9886
9542.0,-3.699,0.7973,9.7085
9552.0,-3.4668,0.8068,9.1913
9562.0,-3.5602,0.8452,8.9064
9572.0,-3.6919,0.8428,8.8083
9582.0,-3.9887,0.759,9.0908
9592.0,-4.3215,0.9433,9.4355
9602.0,-4.4556,0.9912,9.9551
9612.0,-4.4436,1.1277,10.3597
9622.0,-4.3981,1.1444,10.41
9632.0,-4.1611,1.0918,10.1107
9642.0,-4.039,1.0319,9.6103
9652.0,-4.1875,0.7949,9.1818
9662.0,-4.2713,0.6105,8.9711
9672.0,-4.288,0.7278,8.7101
9682.0,-4.3191,0.7638,8.9136
9692.0,-4.446,0.7398,9.1913
9702.0,-4.47,0.8523,9.3063
9712.0,-4.5131,0.8619,9.517
9722.0,-4.3934,0.9002,9.5648
9732.0,-4.3,0.8595,9.4954
9742.0,-3.8044,1.0822,9.3039
9752.0,-3.5721,1.1827,9.1387
9762.0,-3.3806,1.336,8.9136
9772.0,-3.4333,1.2977,8.7293
9782.0,-3.4046,1.3958,8.5688
9792.0,-3.6727,1.336,8.8585
9802.0,-3.9433,1.2833,9.0644
9812.0,-4.3191,1.1779,9.3685
9822.0,-4.5538,1.1205,9.4619
9832.0,-4.6687,1.1157,9.5936
9842.0,-4.7908,1.1181,9.5361
9852.0,-4.8602,1.0702,9.5481
9862.0,-5.0733,0.9433,9.5984
9872.0,-5.1356,0.8643,9.5888
9882.0,-5.0829,0.7207,9.4236
9892.0,-5.0518,0.7829,9.3422
9902.0,-4.9033,0.838,9.414
9912.0,-4.7812,0.9146,9.414
9922.0,-4.7118,0.9912,9.4882
9932.0,-4.798,1.0343,9.4715
9942.0,-4.7285,1.008,9.4595
9952.0,-4.6807,0.9098,9.3925
9962.0,-4.6352,0.9385,9.426
9972.0,-4.6998,1.0367,9.4164
9982.0,-4.7836,1.1061,9.754
9992.0,-4.7046,1.0798,9.821
10002.0,-4.5442,1.166,9.7229
10012.0,-4.2234,1.2498,9.4739
10022.0,-4.0151,1.2378,9.4164
10032.0,-3.7565,1.166,9.0573
10042.0,-3.7804,1.1468,8.8873
10052.0,-3.5434,1.0965,9.0668
10062.0,-3.5075,1.063,9.0956
10072.0,-3.486,1.312,9.0621
10082.0,-3.1723,1.4533,8.9184
10092.0,-2.9592,1.573,9.0214
10102.0,-2.964,1.3719,9.0621
10112.0,-3.0742,1.3048,9.1818
10122.0,-3.1939,1.1636,9.3422
10132.0,-3.225,1.0942,9.4236
10142.0,-3.2082,0.9122,9.3565
10152.0,-3.2202,0.5459,9.2703
10162.0,-3.0981,0.5962,8.8825
10172.0,-2.9664,0.4022,9.4643
10182.0,-2.9928,0.5938,8.8514
10192.0,-3.4836,0.6608,9.2991
10202.0,-3.3471,0.5626,8.9926
10212.0,-3.6871,0.3328,9.5098
10222.0,-3.7158,0.2394,9.6941
10232.0,-3.7565,0.1844,9.8833
10242.0,-3.8762,0.2035,10.1442
10252.0,-3.8571,0.1413,10.0461
10262.0,-3.8642,0.091,9.9671
10272.0,-3.8882,0.0958,9.8043
10282.0,-3.984,0.0742,9.7516
10292.0,-3.9121,0.0742,9.6726
10302.0,-3.7086,0.3232,9.7875
10312.0,-3.4357,0.4812,9.7157
10322.0,-3.3686,0.5722,9.7492
10332.0,-3.3591,0.4214,9.8019
10342.0,-3.3327,0.328,9.8378
10352.0,-3.4117,0.1652,9.9862
10362.0,-3.6009,0.079,10.1825
10372.0,-3.7613,-0.0048,10.2352
10382.0,-3.9768,0.1149,10.1131
10392.0,-4.0151,0.0599,10.0509
10402.0,-4.0318,0.1077,9.8833
10412.0,-3.9337,0.2442,9.6223
10422.0,-3.7781,0.3136,9.1315
10432.0,-3.6631,0.431,8.7652
10442.0,-3.4979,0.498,8.4898
10452.0,-3.4453,0.4501,8.4922
10462.0,-3.4357,0.4286,8.7149
10472.0,-3.5817,0.4597,8.8801
10482.0,-3.7302,0.4812,9.1267
10492.0,-4.1946,0.6081,9.3541
10502.0,-4.3144,0.8021,9.3757
10512.0,-4.2856,0.8332,9.7492
10522.0,-4.0031,0.8164,9.5888
10532.0,-3.2441,0.9984,9.5505
10542.0,-3.0502,1.245,9.6295
10552.0,-3.2298,1.3815,9.8593
10562.0,-3.6248,1.2186,10.4842
10572.0,-4.0127,0.8188,11.054
10582.0,-4.1611,0.3065,11.6095
10592.0,-4.209,-0.1724,12.1338
10602.0,-3.8834,-0.2921,12.1458
10612.0,-3.62,-0.1628,11.7938
10622.0,-3.7134,-0.2131,11.4515
10632.0,-3.5267,-0.1269,11.3294
10642.0,-3.292,0.0934,11.145
10652.0,-3.1412,0.1915,11.0923
10662.0,-2.9401,0.6177,10.8649
10672.0,-2.8323,0.9242,10.4196
10682.0,-2.7845,1.3479,10.0149
10692.0,-2.8778,1.5874,10.003
10702.0,-2.9449,1.9034,9.8402
10712.0,-2.8204,2.1476,9.8138
10722.0,-2.8994,2.4134,9.9503
10732.0,-2.6935,2.6504,9.7851
10742.0,-2.6169,2.7318,9.6414
10752.0,-3.8882,2.1907,9.3518
10762.0,-3.2537,2.0039,8.7676
10772.0,-2.2098,2.2649,8.0086
10782.0,-2.0207,2.5139,7.9128
10792.0,-1.1851,3.1723,7.7907
10802.0,-0.3879,3.4931,8.576
10812.0,-0.0335,3.6344,9.5553
10822.0,0.0287,3.9145,9.6965
10832.0,-0.5626,3.7996,9.7707
10842.0,-1.3695,3.383,9.3589
10852.0,-1.6017,3.0382,9.2895
10862.0,-1.889,2.6719,8.9974
10872.0,-2.2673,2.3415,8.8178
10882.0,-2.8874,2.1452,8.7819
10892.0,-3.3639,2.2553,8.9304
10902.0,-3.7685,2.545,9.6007
10912.0,-3.9552,2.6839,10.8601
10922.0,-3.7014,2.7366,11.7483
10932.0,-3.3519,2.4948,12.3589
10942.0,-3.4453,2.2338,12.4331
10952.0,-3.462,1.8531,11.9327
10962.0,-3.0143,1.6496,10.7787
10972.0,-2.8299,1.5993,10.1825
10982.0,-2.8826,1.5945,9.4332
10992.0,-3.2633,1.506,9.4667
11002.0,-3.4548,1.585,9.8186
11012.0,-3.6344,1.7406,10.149
11022.0,-3.9624,1.8818,10.3884
11032.0,-4.4604,1.7741,10.7212
11042.0,-5.0566,1.4054,11.4539
11052.0,-5.363,1.0032,11.801
11062.0,-4.9057,0.7781,11.9471
11072.0,-4.0223,0.4525,11.4036
11082.0,-2.897,0.079,10.4172
11092.0,-1.5514,0.0646,8.4036
11102.0,-0.826,0.0622,6.6367
11112.0,-0.4645,0.0263,5.6096
11122.0,-0.6823,-0.1101,5.5043
11132.0,-1.4629,-0.2873,6.2345
11142.0,-2.2601,-0.2322,7.082
11152.0,-2.9664,-0.079,8.0541
11162.0,-3.1173,0.6847,8.1475
11172.0,-2.8587,0.7326,8.6814
11182.0,-2.6887,1.0319,8.7101
11192.0,-2.66,0.8787,9.3829
11202.0,-2.9113,0.6943,9.4834
11212.0,-3.3064,0.6009,9.833
11222.0,-3.7661,0.8284,9.7324
11232.0,-3.8786,0.9098,9.9455
11242.0,-3.6344,0.972,10.41
11252.0,-3.0215,1.0271,10.8218
11262.0,-2.5786,1.1301,10.7452
11272.0,-2.7773,1.0439,11.2647
11282.0,-3.5267,0.6943,11.8226
11292.0,-4.0318,0.6632,12.0907
11302.0,-4.1468,0.7614,12.2392
11312.0,-4.0007,0.9792,12.062
11322.0,-3.6775,1.0774,11.8561
11332.0,-3.383,1.2953,11.2575
11342.0,-3.158,1.7286,10.6925
11352.0,-2.8922,2.2218,10.0054
11362.0,-2.6264,2.7222,10.0389
11372.0,-2.308,2.9137,9.7851
11382.0,-2.1835,3.0119,9.7755
11392.0,-1.8076,2.9736,9.651
11402.0,-1.4964,3.0742,8.983
11412.0,-1.1995,3.1508,8.7101
11422.0,-1.0582,3.1843,8.2768
11432.0,-1.2258,3.2753,8.3606
11442.0,-1.2019,3.3232,8.193
11452.0,-1.312,3.2848,8.3366
11462.0,-1.2785,3.3854,8.7628
11472.0,-1.324,3.1771,8.8538
11482.0,-1.5778,3.1603,9.5026
11492.0,-1.7047,3.1963,9.7396
11502.0,-1.8435,3.2848,9.9982
11512.0,-1.9441,3.1699,9.9671
11522.0,-2.0327,3.1795,9.5361
11532.0,-1.9441,2.9353,9.2344
11542.0,-1.8794,2.8276,8.5952
11552.0,-2.3679,2.6671,8.6598
11562.0,-2.885,2.648,9.2464
11572.0,-3.4884,2.6528,10.6398
11582.0,-4.1803,2.5187,12.5528
11592.0,-4.7142,2.3272,14.2527
11602.0,-4.3718,2.3128,14.4562
11612.0,-3.7158,2.1644,13.4578
11622.0,-3.0694,1.6927,12.1075
11632.0,-2.2314,1.2929,9.7803
11642.0,-1.6233,0.9649,7.9224
11652.0,-1.5083,0.7111,7.3981
11662.0,-2.2889,0.4621,8.2648
11672.0,-2.5019,0.4573,8.9208
11682.0,-2.6743,0.3304,9.7252
11692.0,-3.6081,0.1173,10.2735
11702.0,-4.695,0.1796,10.9846
11712.0,-5.387,0.2179,11.0971
11722.0,-5.3175,0.2466,10.9247
11732.0,-4.8961,0.103,10.3837
11742.0,-4.0941,-0.1652,9.4236
11752.0,-3.2417,-0.3615,8.3031
11762.0,-2.6169,-0.2274,7.3215
11772.0,-2.4301,-0.1101,6.28
11782.0,-2.3918,0.0718,6.3231
11792.0,-2.1907,0.2921,6.5457
11802.0,-2.1093,0.3519,7.2832
11812.0,-2.1931,0.395,8.2408
11822.0,-2.1572,0.6057,9.244
11832.0,-2.2051,0.6895,9.4858
11842.0,-2.2051,0.5291,9.5744
11852.0,-2.2936,0.4836,9.3565
11862.0,-2.32,0.4166,9.0237
11872.0,-2.4062,0.2274,8.7771
11882.0,-2.6432,0.091,8.8777
11892.0,-2.988,0.0048,8.9854
11902.0,-3.5434,-0.0575,9.4092
11912.0,-4.0965,0.0407,9.9192
11922.0,-4.4053,0.0503,10.6542
11932.0,-4.4053,0.2873,11.4299
11942.0,-4.1372,0.4501,12.2224
11952.0,-3.462,0.565,12.4498
11962.0,-2.3918,0.7398,12.1649
11972.0,-1.7478,0.6177,11.3102
11982.0,-1.4365,0.6153,10.3932
11992.0,-1.7597,0.5794,9.5457
12002.0,-2.2553,0.7087,9.1315
12012.0,-2.5833,1.3455,8.5545
12022.0,-2.5786,2.0782,8.8131
12032.0,-2.7605,2.3391,9.4667
12042.0,-2.9329,2.5833,9.9623
12052.0,-2.7869,3.2633,10.2807
12062.0,-2.569,3.7685,10.3645
12072.0,-2.8204,3.4357,10.3956
12082.0,-3.0071,2.8754,10.0724
12092.0,-3.1101,2.3559,9.596
12102.0,-2.6671,1.719,8.8178
12112.0,-1.9178,1.4485,8.2863
12122.0,-1.1947,1.336,7.4101
12132.0,-0.9074,1.4293,7.616
12142.0,-1.1756,1.6352,8.5856
12152.0,-1.4964,1.889,9.4188
12162.0,-2.1476,1.9369,10.2735
12172.0,-2.2362,2.1668,10.3621
12182.0,-2.047,2.3894,9.9719
12192.0,-1.9992,2.2505,9.5936
12202.0,-1.561,2.3798,8.8849
12212.0,-1.3719,2.4732,8.4851
12222.0,-1.7214,2.4373,8.4443
12232.0,-2.1596,2.4684,8.8131
12242.0,-2.727,2.6217,9.6223
12252.0,-3.6152,2.636,10.8409
12262.0,-4.5346,2.794,12.0093
12272.0,-5.3391,2.8659,13.2495
12282.0,-5.2601,3.0765,13.6613
12292.0,-4.7046,3.1819,13.5105
12302.0,-3.9145,3.304,12.7084
12312.0,-3.0071,3.4405,11.5017
12322.0,-2.5953,3.3974,10.3717
12332.0,-2.8204,3.1316,9.8162
12342.0,-3.699,2.739,10.4411
12352.0,-4.4891,2.2529,10.8457
12362.0,-5.5929,1.7526,12.2559
12372.0,-6.4835,1.3719,13.1418
12382.0,-7.1419,1.3216,13.4722
12392.0,-7.0605,1.2977,13.2208
12402.0,-6.6702,1.2641,12.9119
12412.0,-5.6934,1.0582,11.88
12422.0,-4.5226,0.7877,10.6446
12432.0,-3.5171,0.5363,9.153
12442.0,-2.7318,0.2682,7.9392
12452.0,-2.2697,0.1556,6.9384
12462.0,-2.1739,0.2729,6.5841
12472.0,-2.2505,0.2658,6.7971
12482.0,-2.4469,0.2107,7.3694
12492.0,-2.2841,0.2873,7.6231
12502.0,-1.9225,0.2011,8.0397
12512.0,-2.2458,0.1173,8.4491
12522.0,-2.5881,0.2179,8.8514
12532.0,-2.8826,0.1484,8.9591
12542.0,-3.2274,0.0263,9.2249
12552.0,-2.7845,-0.0168,8.9735
12562.0,-2.4229,-0.0096,8.6933
12572.0,-2.1165,0.0407,8.4204
12582.0,-1.9417,0.1676,8.0804
12592.0,-2.2601,0.3232,8.2193
12602.0,-2.8108,0.5291,9.2201
12612.0,-3.6919,0.7877,10.1873
12622.0,-4.3239,1.0104,11.1642
12632.0,-4.719,1.142,12.0333
12642.0,-4.7692,1.1851,12.2248
12652.0,-4.2808,1.1013,12.1218
12662.0,-3.3806,1.1277,11.5448
12672.0,-2.6815,1.0463,10.7284
12682.0,-2.5067,1.2091,9.9407
12692.0,-2.2745,1.3982,8.576
12702.0,-3.3543,1.3743,9.8809
12712.0,-4.0247,1.3455,10.3573
12722.0,-4.7046,1.4892,10.7835
12732.0,-5.2457,1.8172,11.0492
12742.0,-5.2337,2.3822,10.8912
12752.0,-5.0925,2.375,10.8146
12762.0,-4.968,2.0303,10.5919
12772.0,-4.1827,2.0423,9.7492
12782.0,-3.3543,2.0063,8.9639
12792.0,-2.6887,1.7573,8.3031
12802.0,-2.2673,1.47,8.0373
12812.0,-2.047,1.3958,7.8817
12822.0,-2.0782,1.3168,7.6231
12832.0,-2.2194,1.2498,7.7069
12842.0,-2.3415,1.4605,7.9152
12852.0,-2.4708,1.5395,8.2408
12862.0,-2.5977,1.6305,8.4587
12872.0,-2.332,1.6496,8.1954
12882.0,-1.8794,1.5754,7.671
12892.0,-1.8052,1.3431,6.9623
12902.0,-1.7741,1.257,6.5864
12912.0,-2.0375,1.3024,6.596
12922.0,-2.2194,1.3599,6.8091
12932.0,-2.2841,1.561,7.0294
12942.0,-2.4253,1.7597,7.6734
12952.0,-2.6456,1.9106,8.1977
12962.0,-2.7845,2.1907,8.3965
12972.0,-2.8778,2.4277,8.4132
12982.0,-3.1077,2.6504,8.7939
12992.0,-3.6919,2.6983,9.4619
13002.0,-4.0917,2.8754,10.2089
13012.0,-4.3455,2.9185,10.9032
13022.0,-4.5681,2.9616,11.303
13032.0,-4.3598,2.7629,11.1881
13042.0,-4.0318,2.5666,10.5177
13052.0,-3.6488,2.3511,9.7683
13062.0,-3.9313,2.2266,9.8378
13072.0,-4.2737,2.1979,9.8928
13082.0,-4.9177,2.1093,10.4722
13092.0,-5.102,2.0279,11.0636
13102.0,-4.9704,2.138,11.0995
13112.0,-5.1068,2.0662,11.1546
13122.0,-5.5737,1.9513,11.2312
13132.0,-6.3662,1.9896,11.7531
13142.0,-7.0485,1.9872,12.5696
13152.0,-6.8043,1.9154,12.821
13162.0,-6.1962,1.4461,12.7755
13172.0,-5.0781,1.4365,11.8513
13182.0,-4.0079,1.3838,10.4363
13192.0,-3.0981,1.1516,9.1722
13202.0,-2.241,0.9625,8.169
13212.0,-1.4581,0.8356,7.2257
13222.0,-1.4006,0.7685,7.3287
13232.0,-1.2043,0.7278,7.4053
13242.0,-1.4293,0.6728,7.8745
13252.0,-1.8411,0.6464,8.3246
13262.0,-2.2051,0.6225,8.5641
13272.0,-2.4014,0.8859,9.0285
13282.0,-2.7294,0.9409,9.5768
13292.0,-2.8874,1.0247,9.663
13302.0,-2.7821,0.9673,9.8234
13312.0,-2.5355,0.9505,9.9623
13322.0,-2.3918,0.8739,9.9024
13332.0,-2.557,0.9601,9.9311
13342.0,-3.0023,1.2665,10.1299
13352.0,-3.4357,1.6137,10.6111
13362.0,-3.9552,1.664,11.2671
13372.0,-4.039,1.719,11.8561
13382.0,-4.2306,1.6328,12.3517
13392.0,-4.2162,1.7119,12.2128
13402.0,-3.9097,1.9632,11.8106
13412.0,-3.4237,2.2338,11.2934
13422.0,-3.3136,2.1835,10.8457
13432.0,-3.3423,2.3248,10.6231
13442.0,-3.3854,2.478,10.501
13452.0,-3.6607,2.5642,10.5345
13462.0,-3.7517,2.5833,10.5153
13472.0,-3.8523,2.332,10.3453
13482.0,-3.9265,2.1308,10.2496
13492.0,-3.8762,2.0542,10.0796
13502.0,-3.699,1.9896,9.7037
13512.0,-3.2417,1.8028,9.1913
13522.0,-2.7845,1.834,8.6048
13532.0,-2.1811,1.5634,7.8913
13542.0,-2.0758,1.3647,7.5274
13552.0,-2.0877,1.2091,7.3478
13562.0,-2.1021,1.3048,7.276
13572.0,-2.1237,1.5203,7.343
13582.0,-2.083,1.5538,7.3717
13592.0,-2.0542,1.6424,7.4531
13602.0,-2.1452,1.7214,7.2592
13612.0,-2.2146,1.8699,7.4986
13622.0,-2.5067,1.7573,7.829
13632.0,-2.7988,1.9154,8.0158
13642.0,-2.9018,1.968,8.1762
13652.0,-3.0861,1.9632,8.351
13662.0,-3.486,1.9968,8.9064
13672.0,-3.7182,2.229,9.2249
13682.0,-4.1037,2.4756,9.6845
13692.0,-4.1444,2.8252,9.9024
13702.0,-4.2904,3.0215,10.2759
13712.0,-3.9097,2.9521,10.5872
13722.0,-3.4093,2.9497,10.7404
13732.0,-3.2609,3.0263,10.7763
13742.0,-3.3782,3.0694,10.9319
13752.0,-3.7254,3.043,11.3198
13762.0,-3.8618,2.6791,11.2168
13772.0,-4.3407,2.0375,11.4658
13782.0,-4.7046,1.5419,11.5281
13792.0,-4.8483,1.3024,11.6598
13802.0,-4.0127,1.6209,11.0421
13812.0,-5.0637,0.893,11.0516
13822.0,-5.612,0.7614,10.6662
13832.0,-5.7964,0.5722,10.2208
13842.0,-5.4947,0.5818,9.7492
13852.0,-4.7501,0.7949,8.995
13862.0,-4.2521,0.8475,8.4922
13872.0,-4.0677,0.5986,8.5018
13882.0,-3.9409,0.6728,8.7508
13892.0,-3.7804,0.7925,8.7005
13902.0,-3.5195,0.9146,8.576
13912.0,-3.0502,1.0008,8.09
13922.0,-2.2027,0.9625,7.4627
13932.0,-1.4653,0.7542,6.7253
13942.0,-1.3719,0.5291,6.5338
13952.0,-1.8172,0.3448,6.7876
13962.0,-2.794,0.1053,7.8985
13972.0,-3.4093,0.0718,8.7724
13982.0,-3.6799,0.0311,10.07
13992.0,-3.4333,0.2729,10.2975
14002.0,-2.806,0.5243,9.9575
14012.0,-2.4205,0.5291,9.4595
14022.0,-2.5355,0.3759,8.904
14032.0,-2.9401,0.1963,9.3685
14042.0,-3.1388,0.2346,9.7875
14052.0,-3.3495,0.158,10.6111
14062.0,-3.6009,0.3543,11.7771
14072.0,-4.1013,0.3998,12.5887
14082.0,-4.276,0.51,13.0652
14092.0,-4.0582,0.7494,12.6701
14102.0,-4.1372,0.6656,12.2559
14112.0,-4.3024,0.735,11.8178
14122.0,-3.9696,1.0271,11.6095
14132.0,-3.4716,1.1301,11.1282
14142.0,-3.2729,1.1157,11.0181
14152.0,-3.1053,1.1684,10.8912
14162.0,-3.4884,1.3001,10.7811
14172.0,-3.6152,1.4581,10.4555
14182.0,-3.5721,1.5275,10.3094
14192.0,-3.3112,1.5634,9.9958
14202.0,-3.0957,1.4629,9.6055
14212.0,-2.8108,1.312,9.3733
14222.0,-2.7078,1.2522,9.2225
14232.0,-2.6624,1.0822,8.8322
14242.0,-2.4924,1.2354,8.0589
14252.0,-2.1524,1.2163,7.4795
14262.0,-1.8579,1.2857,7.4651
14272.0,-1.6137,1.5778,7.762
14282.0,-1.4198,1.7693,7.9727
14292.0,-1.6472,1.6951,8.3965
14302.0,-2.1452,1.6328,9.1339
14312.0,-2.4277,1.5083,9.0285
14322.0,-2.4852,1.5012,9.0214
14332.0,-2.5379,1.4365,8.8897
14342.0,-2.4972,1.2665,8.8705
14352.0,-2.8371,1.0678,9.2201
14362.0,-3.3926,1.0295,9.7181
14372.0,-3.9193,1.0463,10.2256
14382.0,-4.1611,1.2809,10.4531
14392.0,-4.3335,1.6735,10.9942
14402.0,-4.2928,1.9225,11.1306
14412.0,-4.4317,1.6568,11.746
14422.0,-4.1515,1.585,12.3301
14432.0,-3.5434,1.7621,12.6294
14442.0,-2.9975,2.1093,11.9806
14452.0,-2.557,2.3343,11.3389
14462.0,-2.7366,2.0111,10.5273
14472.0,-3.1316,1.5658,10.5704
14482.0,-3.2753,1.1923,10.3573
14492.0,-4.0247,0.5914,10.4603
14502.0,-4.9536,0.1867,10.817
14512.0,-6.0717,-0.1006,10.9846
14522.0,-6.6822,-0.1748,11.2815
14532.0,-6.5984,-0.2682,11.2934
14542.0,-5.4923,-0.5004,10.3214
14552.0,-4.2569,-0.5722,9.244
14562.0,-2.8826,-0.6464,7.501
14572.0,-1.8459,-0.8667,6.2393
14582.0,-1.3623,-0.8739,5.3343
14592.0,-1.5419,-0.9361,5.0949
14602.0,-1.9537,-0.9505,6.1627
14612.0,-2.0446,-0.7877,7.1371
14622.0,-2.2242,-0.5291,8.3989
14632.0,-2.4517,-0.2562,9.1291
14642.0,-2.7653,-0.0886,9.9455
14652.0,-2.5043,0.182,9.9551
14662.0,-2.4181,0.2538,10.0221
14672.0,-2.5259,0.1149,9.7851
14682.0,-2.8611,0.1389,9.7851
14692.0,-2.9999,0.1484,10.1203
14702.0,-3.0694,0.3376,10.5584
14712.0,-3.2825,0.5698,10.9391
14722.0,-3.723,0.7709,11.1737
14732.0,-4.3479,0.8164,12.0979
14742.0,-4.7477,0.747,12.7802
14752.0,-5.0637,0.2705,13.3405
14762.0,-5.1715,-0.3112,13.726
14772.0,-4.9488,-0.7518,13.1897
14782.0,-4.3981,-0.5531,12.2439
14792.0,-3.4668,-0.2586,11.1091
14802.0,-2.9066,-0.1293,10.6973
14812.0,-2.7869,0.1796,10.5321
14822.0,-3.043,0.6201,10.5082
14832.0,-3.3112,0.893,10.2759
14842.0,-3.7493,1.2594,10.0413
14852.0,-3.8666,1.4844,10.0628
14862.0,-3.9337,1.5155,9.8641
14872.0,-3.62,1.6376,9.4308
14882.0,-3.237,1.8842,9.1985
14892.0,-2.7845,2.0782,8.4922
14902.0,-2.2122,2.0063,7.6495
14912.0,-1.5969,1.6233,7.197
14922.0,-1.1684,1.4413,6.6248
14932.0,-0.972,1.415,6.0478
14942.0,-1.233,1.3168,6.0885
14952.0,-1.6137,1.3934,6.6032
14962.0,-1.8004,1.4988,7.2951
14972.0,-2.1021,1.3743,8.2887
14982.0,-2.2338,1.3575,8.9974
14992.0,-2.0494,1.4988,9.2895
15002.0,-1.9896,1.561,8.9064
15012.0,-1.8794,1.4557,8.102
15022.0,-1.98,1.4269,7.3119
15032.0,-2.1261,1.2881,7.276
15042.0,-2.7988,1.0463,7.9918
15052.0,-3.4764,1.2115,9.1698
15062.0,-4.0797,1.6568,10.1299
15072.0,-4.8028,1.9728,11.1929
15082.0,-4.8483,2.0925,11.6526
15092.0,-4.4269,1.9537,11.3677
15102.0,-3.984,1.4246,10.5991
15112.0,-3.9289,0.9361,9.9766
15122.0,-4.367,0.8164,9.7468
15132.0,-4.6711,1.3048,9.9647
15142.0,-4.889,1.7166,10.4363
15152.0,-5.047,1.7334,10.9894
15162.0,-5.4708,1.4916,11.7076
15172.0,-6.5003,0.9864,12.7443
15182.0,-7.4508,0.8523,13.6757
15192.0,-7.5513,0.9673,13.702
15202.0,-6.9552,0.7159,13.556
15212.0,-5.8083,0.5124,12.6366
15222.0,-4.5346,0.486,11.2312
15232.0,-3.383,0.3472,9.2751
15242.0,-2.4157,0.3136,8.0062
15252.0,-1.5562,0.1269,6.8642
15262.0,-0.996,-0.0479,6.3063
15272.0,-0.8092,-0.1676,6.3303
15282.0,-1.0606,-0.2801,6.8546
15292.0,-1.3001,-0.3136,7.4364
15302.0,-1.6089,0.091,8.3007
15312.0,-1.7047,0.1293,8.7867
15322.0,-1.561,0.1915,8.9376
15332.0,-1.3455,0.1413,8.4779
15342.0,-0.9912,0.0168,8.2552
15352.0,-0.905,-0.0694,7.6279
15362.0,-1.0846,-0.103,7.2664
15372.0,-1.4198,0.0096,7.7213
15382.0,-1.9968,0.3567,8.4443
15392.0,-3.0023,0.8212,10.0341
15402.0,-4.0917,0.9984,11.8489
15412.0,-4.9656,1.2163,13.3166
15422.0,-5.2744,1.3048,13.9821
15432.0,-5.3917,1.2306,13.9726
15442.0,-4.8722,1.3144,13.3956
15452.0,-4.1108,1.1109,12.3445
15462.0,-3.304,0.7326,11.6646
15472.0,-3.2801,0.4645,11.4634
15482.0,-4.0606,0.6153,11.734
15492.0,-4.7597,0.9984,12.1075
15502.0,-5.2433,1.2234,12.8377
15512.0,-5.4636,1.6089,12.9957
15522.0,-5.3175,2.0159,12.7635
15532.0,-5.0015,2.3631,12.1099
15542.0,-4.7262,2.2027,11.5831
15552.0,-4.4604,2.0614,10.659
15562.0,-4.0845,2.0087,10.2639
15572.0,-3.6272,1.9465,9.6893
15582.0,-2.8874,2.1165,8.8083
15592.0,-1.98,2.2338,7.604
15602.0,-1.2665,1.9537,6.4763
15612.0,-0.8308,1.731,5.5976
15622.0,-0.9002,1.573,5.5833
15632.0,-1.4054,1.5083,6.201
15642.0,-2.0183,1.5371,6.936
15652.0,-2.3774,1.0822,7.7931
15662.0,-2.715,0.8547,8.6359
15672.0,-3.1867,0.8404,9.1626
15682.0,-3.2825,1.3024,8.9519
15692.0,-2.9233,1.506,8.3773
15702.0,-2.6384,1.798,7.7931
15712.0,-2.3296,2.0087,6.9073
15722.0,-3.1364,1.8627,6.8378
15732.0,-4.051,1.6544,7.4795
15742.0,-4.7405,1.7238,8.679
15752.0,-5.4923,1.7693,10.003
15762.0,-5.8012,1.7909,10.92
15772.0,-5.7174,1.7645,11.4658
15782.0,-5.1068,1.573,11.2647
15792.0,-4.3479,1.2258,10.6686
15802.0,-3.5506,0.8021,9.6893
15812.0,-2.9928,0.4812,9.256
15822.0,-3.1627,0.4836,9.5768
15832.0,-3.9217,0.4621,10.2999
15842.0,-4.5897,0.5842,11.0636
15852.0,-5.1356,0.4884,11.8848
15862.0,-5.9448,-0.0551,12.2056
15872.0,-6.8881,-0.5219,12.7348
15882.0,-7.5872,-0.5746,12.7419
15892.0,-7.2616,-0.1125,11.9279
15902.0,-6.3614,0.0407,11.303
15912.0,-5.4085,-0.0934,10.0078
15922.0,-4.2018,-0.3448,8.5258
15932.0,-3.1005,-0.5962,6.9791
15942.0,-2.3248,-0.7446,5.849
15952.0,-2.4086,-0.9601,5.5378
15962.0,-2.7174,-0.9936,5.9855
15972.0,-2.8874,-0.8092,6.6607
15982.0,-3.0239,-0.8308,7.5369
15992.0,-2.8204,-0.7781,8.3869
16002.0,-2.6169,-0.6823,8.7747
16012.0,-2.5642,-0.6632,8.6694
16022.0,-2.5355,-0.8164,8.4898
16032.0,-2.3272,-0.7661,8.4108
16042.0,-2.399,-0.5507,8.7317
16052.0,-2.6839,-0.4717,9.2081
16062.0,-2.9999,-0.4908,9.7707
16072.0,-3.2968,-0.4357,10.4339
16082.0,-3.5602,-0.4741,10.738
16092.0,-3.9433,-0.1915,11.0181
16102.0,-4.5849,-0.1604,11.2312
16112.0,-4.7908,-0.3232,11.8752
16122.0,-4.5538,-0.3974,11.983
16132.0,-4.0582,-0.4788,11.8274
16142.0,-3.5219,-0.7111,11.5999
16152.0,-2.2984,-0.6847,10.8409
16162.0,-1.4317,-0.5148,10.2496
16172.0,-1.506,-0.4214,9.6654
16182.0,-2.2242,-0.1604,10.3334
16192.0,-3.2058,0.0622,10.8553
16202.0,-4.276,0.4166,12.2559
16212.0,-5.2672,0.8404,12.809
16222.0,-5.5713,1.2689,12.7802
16232.0,-5.4947,1.6712,12.0404
16242.0,-5.035,1.5969,10.7571
16252.0,-4.9201,1.2857,9.7803
16262.0,-4.853,1.3408,9.0142
16272.0,-4.3479,1.6879,8.169
16282.0,-3.7493,1.8914,7.2305
16292.0,-3.6775,1.5323,7.0605
16302.0,-3.5075,1.7693,7.0485
16312.0,-3.5123,1.834,7.0054
16322.0,-3.4692,1.7071,6.9336
16332.0,-3.7613,1.3024,7.2736
16342.0,-3.5482,1.1923,7.6614
16352.0,-3.2729,1.2234,7.8578
16362.0,-2.9209,1.2019,8.2863
16372.0,-3.0598,1.1444,8.7628
16382.0,-3.2346,1.3096,9.0261
16392.0,-3.5482,1.6281,9.1387
16402.0,-3.8571,1.5921,9.0812
16412.0,-3.8307,1.7502,9.1099
16422.0,-3.7254,1.652,9.086
16432.0,-3.8403,1.6017,9.7109
16442.0,-3.984,1.6209,10.3693
16452.0,-3.7972,1.7119,10.6686
16462.0,-3.4668,1.6664,10.8386
16472.0,-3.0215,1.3886,10.7595
16482.0,-2.1859,0.9649,10.4028
16492.0,-2.047,0.7542,10.4531
16502.0,-2.6863,0.6584,10.8649
16512.0,-3.9313,0.826,11.5281
16522.0,-5.0613,0.9361,12.1793
16532.0,-5.5043,1.0391,12.8521
16542.0,-5.5354,0.9888,12.7611
16552.0,-5.6743,0.7087,12.3541
16562.0,-5.5929,0.5722,11.7483
16572.0,-5.5522,0.4884,10.9798
16582.0,-5.2912,0.6177,10.3477
16592.0,-5.0182,0.6704,10.0916
16602.0,-4.6543,0.4836,9.8402
16612.0,-4.1204,0.4884,9.1435
16622.0,-3.4572,0.3711,8.3893
16632.0,-2.8563,0.3065,7.7357
16642.0,-2.5379,0.1341,7.1395
16652.0,-1.9178,0.1341,6.5027
16662.0,-1.5179,0.0192,6.0669
16672.0,-1.7669,-0.1628,6.0621
16682.0,-2.0901,-0.1796,6.4524
16692.0,-2.6145,-0.0527,7.0916
16702.0,-3.0215,0.0934,7.9918
16712.0,-3.3495,0.2873,9.1075
16722.0,-3.6775,0.2011,9.9264
16732.0,-3.8235,0.1077,10.2017
16742.0,-3.5051,0.0455,9.4954
16752.0,-3.2417,0.0622,9.2656
16762.0,-3.3782,-0.3448,8.7293
16772.0,-3.3255,-0.5938,9.1195
16782.0,-3.474,-0.8068,10.3358
16792.0,-4.2832,-0.8092,11.789
16802.0,-4.6711,-0.4693,12.7635
16812.0,-4.6855,-0.1532,13.1083
16822.0,-4.3551,-0.1724,12.73
16832.0,-3.5961,-0.0072,11.71
16842.0,-3.0023,0.0622,10.4531
16852.0,-2.8036,0.316,9.7827
16862.0,-2.9161,0.7518,9.6103
16872.0,-3.1675,1.403,9.5648
16882.0,-3.6559,2.1261,10.1634
16892.0,-3.9265,2.4948,10.805
16902.0,-4.2665,2.4157,11.1977
16912.0,-4.5873,2.3583,11.2887
16922.0,-4.7645,2.3008,11.1977
16932.0,-4.4772,2.1452,10.7236
16942.0,-4.0438,2.0446,10.094
16952.0,-3.158,2.0399,8.8897
16962.0,-2.4325,2.0183,8.0158
16972.0,-1.9393,1.7454,7.4891
16982.0,-1.5227,1.652,6.9647
16992.0,-1.2139,1.6664,6.754
17002.0,-1.2833,1.5682,6.8714
17012.0,-1.2881,1.5921,7.1922
17022.0,-1.4437,1.7262,7.6375
17032.0,-1.8292,1.7669,8.6263
17042.0,-2.4397,1.6568,9.2249
17052.0,-2.5426,1.6664,9.5026
17062.0,-2.3272,1.6281,9.3446
17072.0,-1.9273,1.6281,9.0118
17082.0,-1.4317,1.8244,8.746
17092.0,-1.3408,1.9321,8.8849
17102.0,-1.5969,2.0183,9.6175
17112.0,-2.4014,2.0949,10.9295
17122.0,-3.3399,1.7837,12.5025
17132.0,-4.1875,1.2354,13.7403
17142.0,-4.3167,0.9505,13.7643
17152.0,-4.1252,0.6991,13.0149
17162.0,-3.6081,0.4501,11.6119
17172.0,-3.1125,0.2705,10.9247
17182.0,-2.7988,0.3998,10.0006
17192.0,-3.2561,0.4286,10.2113
17202.0,-4.1899,0.0239,11.1929
17212.0,-5.3127,-0.2274,12.4977
17222.0,-6.1459,-0.1844,13.4434
17232.0,-6.6894,-0.0168,13.8409
17242.0,-6.7086,0.146,13.7499
17252.0,-6.3375,0.4621,13.1849
17262.0,-5.6862,0.5243,12.2248
17272.0,-5.0949,0.316,11.497
17282.0,-4.3479,0.2705,10.4004
17292.0,-3.711,0.2107,9.3111
17302.0,-3.1101,0.1077,8.4204
17312.0,-2.7892,-0.0192,7.9033
17322.0,-2.4995,-0.1532,7.5489
17332.0,-2.7869,-0.2777,7.8099
17342.0,-3.0382,-0.4142,7.9104
17352.0,-3.1125,-0.4501,8.0086
17362.0,-2.6743,-0.2466,7.6207
17372.0,-2.5355,-0.2107,7.2065
17382.0,-2.4972,0.0934,7.1443
17392.0,-2.5331,0.1652,7.501
17402.0,-2.7869,0.3065,8.0038
17412.0,-2.7701,0.5842,8.157
17422.0,-2.8563,0.7566,8.2145
17432.0,-2.897,0.8475,8.1666
17442.0,-2.624,1.0343,7.7524
17452.0,-2.5762,1.0439,7.2281
17462.0,-2.2027,1.0199,6.7086
17472.0,-2.1644,0.7685,7.1563
17482.0,-2.2936,0.3663,8.0349
17492.0,-2.6743,0.2682,8.849
17502.0,-3.644,0.3759,9.8809
17512.0,-4.4053,0.6728,10.8553
17522.0,-4.6471,1.0582,11.7867
17532.0,-4.5705,1.1325,12.2248
17542.0,-4.2784,0.9361,12.3804
17552.0,-3.7469,0.9266,12.2559
17562.0,-3.1556,0.7949,11.9303
17572.0,-2.9305,0.7566,11.5496
17582.0,-3.0622,0.8164,11.564
17592.0,-3.2585,1.257,11.2671
17602.0,-3.5123,1.7909,11.0397
17612.0,-3.7373,2.0375,10.9343
17622.0,-4.2138,2.0399,11.0085
17632.0,-4.64,2.1045,11.3677
17642.0,-4.889,2.0901,11.7029
17652.0,-4.7501,2.4157,12.1578
17662.0,-4.4628,2.4972,12.0859
17672.0,-4.1635,2.4708,11.88
17682.0,-3.5362,2.3559,10.9535
17692.0,-2.32,2.6073,9.019
17702.0,-1.1205,2.4373,6.9719
17712.0,-0.6464,2.1452,5.8658
17722.0,-0.9577,1.8555,5.8993
17732.0,-1.4892,1.7909,6.5218
17742.0,-2.0518,1.7621,7.4364
17752.0,-2.3463,1.8794,8.2744
17762.0,-2.5139,2.1931,9.0429
17772.0,-2.3703,2.4924,9.3254
17782.0,-2.047,2.5283,8.9519
17792.0,-1.5347,2.3296,8.4898
17802.0,-1.3288,1.8435,7.5178
17812.0,-0.9146,1.7526,6.9264
17822.0,-0.8523,1.743,6.9576
17832.0,-1.4461,1.8124,8.3246
17842.0,-2.6504,1.4748,10.1155
17852.0,-3.553,1.4102,12.1482
17862.0,-4.3598,1.2761,13.8768
17872.0,-4.6926,1.1229,14.6453
17882.0,-4.5298,1.2091,14.5208
17892.0,-3.4955,1.3599,12.5121
17902.0,-2.4804,1.1205,10.817
17912.0,-1.4078,0.8882,9.4978
17922.0,-1.1564,0.668,9.1722
17932.0,-1.6281,0.8667,9.3901
17942.0,-2.6049,0.9744,10.2185
17952.0,-3.8068,1.1756,11.6334
17962.0,-4.8818,1.3408,12.5696
17972.0,-5.6982,1.5802,13.2399
17982.0,-5.8347,1.7765,13.2136
17992.0,-6.1172,1.5706,13.5847
18002.0,-5.466,1.5586,12.5265
18012.0,-3.9816,1.6879,11.0947
18022.0,-2.1261,1.7478,9.2919
18032.0,-0.7302,1.5538,7.6495
18042.0,0.0048,1.2594,7.0054
18052.0,0.4166,1.075,6.7947
18062.0,0.3759,1.1732,7.015
18072.0,0.2921,1.2905,7.5465
18082.0,0.5076,1.2522,7.6974
18092.0,0.3711,1.336,8.0158
18102.0,0.4956,1.2809,8.0302
18112.0,0.3783,1.2737,7.9655
18122.0,0.2921,1.2186,7.6447
18132.0,0.3184,1.1827,7.0437
18142.0,0.5028,1.2282,6.9168
18152.0,0.8188,1.2258,7.0198
18162.0,0.316,1.2019,7.8793
18172.0,-0.0599,1.4748,8.6143
18182.0,-0.8045,1.6185,9.4763
18192.0,-1.8411,1.6089,10.568
18202.0,-2.5738,1.5131,11.6071
18212.0,-3.0789,1.2306,12.3708
18222.0,-3.383,0.8499,12.5863
18232.0,-3.1292,0.5555,12.7204
18242.0,-3.4524,0.2322,12.7036
18252.0,-2.6719,0.1532,11.8058
18262.0,-2.4157,0.1556,11.3054
18272.0,-2.2889,0.079,10.8098
18282.0,-2.32,0.1652,10.4722
18292.0,-2.6552,0.0311,10.568
18302.0,-3.1891,0.1197,10.635
18312.0,-4.1348,0.2418,11.2911
18322.0,-4.8842,0.5842,12.2511
18332.0,-5.0781,0.6512,12.8617
18342.0,-4.9321,0.7829,12.481
18352.0,-4.2018,0.6895,11.7531
18362.0,-3.0789,0.4764,10.4004
18372.0,-2.1308,0.4214,9.2033
18382.0,-1.5778,0.9577,8.0637
18392.0,-1.1636,0.6416,8.2576
18402.0,-1.8316,0.4669,8.655
18412.0,-2.0303,0.589,9.256
18422.0,-2.3487,1.0439,9.3278
18432.0,-2.8611,1.336,10.0173
18442.0,-3.1556,1.6712,10.3406
18452.0,-3.1508,1.8435,10.9942
18462.0,-2.8323,1.7286,10.9128
18472.0,-2.7078,1.3503,11.1857
18482.0,-2.5091,1.0558,11.1905
18492.0,-2.5642,0.8499,11.5233
18502.0,-2.9281,0.7278,11.8106
18512.0,-3.4692,0.9146,12.4068
18522.0,-3.814,0.8906,13.2495
18532.0,-4.1204,0.9074,13.5943
18542.0,-3.9983,1.1516,13.5703
18552.0,-3.6823,1.5347,12.8904
18562.0,-3.4237,1.573,12.0285
18572.0,-2.9353,1.4676,11.1067
18582.0,-2.5259,1.3479,10.2208
18592.0,-2.0997,1.6975,9.7229
18602.0,-1.8076,2.3032,9.098
18612.0,-1.7382,2.636,9.0333
18622.0,-2.2697,2.4708,9.8952
18632.0,-2.885,2.4038,10.8912
18642.0,-3.4237,2.5259,11.5592
18652.0,-3.304,2.873,11.236
18662.0,-2.6049,3.1436,10.4914
18672.0,-1.6209,3.3136,8.8609
18682.0,-0.7278,3.2537,7.8506
18692.0,0.565,3.0622,6.0382
18702.0,1.3168,2.964,5.1763
18712.0,0.9505,3.0502,5.9496
18722.0,0.2658,3.1747,7.2377
18732.0,-0.4501,3.3495,8.4874
18742.0,-1.1372,3.3782,9.3182
18752.0,-1.7119,3.2513,10.1586
18762.0,-1.7358,3.0885,10.1251
18772.0,-1.5969,3.1388,9.7659
18782.0,-1.3695,3.1412,9.4164
18792.0,-1.0582,3.1149,8.7652
18802.0,-0.3567,3.3399,8.3462
18812.0,-0.3304,3.4069,8.7149
18822.0,-0.7614,3.4093,8.9998
18832.0,-1.5155,3.3447,9.3206
18842.0,-2.5139,3.1292,9.8497
18852.0,-3.3447,2.6743,10.7811
18862.0,-3.3758,2.4134,11.2671
18872.0,-3.3782,2.0016,11.5903
18882.0,-3.3232,1.3216,11.7819
18892.0,-2.399,0.8954,10.8362
18902.0,-2.1117,0.6919,10.2951
18912.0,-2.4804,0.8954,9.8234
18922.0,-3.146,1.3096,10.2304
18932.0,-3.6009,1.5802,10.9128
18942.0,-3.8571,1.6017,11.2432
18952.0,-4.6855,1.6185,11.8417
18962.0,-6.2417,1.415,12.9047
18972.0,-6.8761,1.2857,13.5009
18982.0,-6.4691,1.2115,12.9526
18992.0,-5.8371,0.917,12.1985
19002.0,-4.6663,0.917,10.671
19012.0,-3.1388,1.2091,9.2105
19022.0,-2.1428,1.312,7.9128
19032.0,-1.2043,1.1301,7.1898
19042.0,-0.7853,0.7661,6.3973
19052.0,-0.8452,0.0742,6.2824
19062.0,-1.0415,-0.3017,6.1339
19072.0,-1.6855,-0.4214,6.687
19082.0,-1.6999,-0.103,7.0797
19092.0,-1.6472,0.1317,7.5776
19102.0,-1.5443,0.4334,7.5489
19112.0,-1.3455,0.6752,7.5106
19122.0,-1.3527,0.7757,7.6255
19132.0,-1.5083,0.9744,8.0349
19142.0,-1.9178,1.1013,8.7747
19152.0,-2.6983,1.1636,10.2041
19162.0,-3.4453,1.3695,11.6909
19172.0,-4.1851,1.3527,13.0628
19182.0,-4.8985,1.2067,13.8385
19192.0,-5.0182,1.4317,13.3908
19202.0,-4.5777,1.5371,12.4738
19212.0,-4.367,1.5945,11.4634
19222.0,-4.379,1.2809,10.9056
19232.0,-4.1922,1.0151,10.4028
19242.0,-3.5745,1.0295,10.0724
19252.0,-3.4716,1.2905,9.7923
19262.0,-4.3574,1.312,10.1897
19272.0,-5.4085,1.5107,10.7787
19282.0,-6.0549,1.9561,11.0899
19292.0,-5.8802,2.1644,10.963
19302.0,-6.0693,2.0399,11.248
19312.0,-6.5027,1.5921,11.2767
19322.0,-6.541,1.5706,11.4132
19332.0,-5.9256,1.8699,10.9559
19342.0,-4.7118,1.7789,9.4403
19352.0,-3.3734,1.6592,8.0254
19362.0,-1.5826,1.5754,6.2177
19372.0,-0.8045,1.2881,5.2265
19382.0,-1.0534,1.2713,5.3319
19392.0,-2.1859,1.1612,6.6487
19402.0,-3.201,0.9936,8.5234
19412.0,-3.8499,1.1708,10.2352
19422.0,-3.9696,1.5107,11.394
19432.0,-3.5291,1.5874,11.6047
19442.0,-2.5402,1.5107,10.477
19452.0,-1.4006,1.4533,8.6119
19462.0,-0.7302,1.1253,6.5745
19472.0,-0.1532,0.9984,5.3534
19482.0,-0.4142,1.1085,5.4205
19492.0,-1.2809,1.3982,6.9312
19502.0,-2.557,1.7933,9.0692
19512.0,-4.0893,2.0111,11.5377
19522.0,-4.9847,2.5426,12.8377
19532.0,-5.5378,2.557,13.5081
19542.0,-5.4492,2.2984,12.9431
19552.0,-4.7932,1.9824,11.6095
19562.0,-3.7014,1.6975,9.9144
19572.0,-2.9688,1.415,8.9495
19582.0,-2.5474,1.2594,8.2648
19592.0,-3.225,1.4581,8.6359
19602.0,-4.4484,1.3599,9.73
19612.0,-5.5426,1.3288,10.8074
19622.0,-6.4452,1.3024,12.1003
19632.0,-6.4979,1.5993,12.9263
19642.0,-6.5386,1.5131,13.3692
19652.0,-6.7708,1.3144,13.398
19662.0,-6.9576,1.0247,13.0508
19672.0,-6.3901,0.7302,12.1266
19682.0,-5.387,0.395,11.2432
19692.0,-4.4245,0.0862,10.2376
19702.0,-3.1723,-0.1556,8.7532
19712.0,-2.3343,-0.0646,7.7716
19722.0,-2.0877,-0.2586,7.4436
19732.0,-1.9417,-0.3615,7.5106
19742.0,-2.1883,-0.589,7.762
19752.0,-2.5067,-0.6871,8.023
19762.0,-2.3798,-0.5555,8.0469
19772.0,-2.1165,-0.4884,8.1618
19782.0,-1.889,-0.407,8.1762
19792.0,-1.9297,-0.2897,8.1355
19802.0,-1.8148,-0.2945,7.5154
19812.0,-1.4269,-0.1101,6.8977
19822.0,-1.3527,-0.2442,6.4548
19832.0,-1.5395,-0.3256,6.7828
19842.0,-2.2769,-0.3232,7.75
19852.0,-3.0933,-0.1221,9.0884
19862.0,-3.5482,0.0646,10.2065
19872.0,-3.6943,0.2873,11.3198
19882.0,-3.9265,0.3136,11.9351
19892.0,-4.0917,0.4166,12.3565
19902.0,-3.8188,0.4908,12.0835
19912.0,-3.3232,0.7015,11.0445
19922.0,-2.5163,0.8691,9.8354
19932.0,-2.2505,0.838,9.0309
19942.0,-3.2968,0.6129,9.8234
19952.0,-4.8602,0.6369,10.6063
19962.0,-6.3255,0.7638,11.9686
19972.0,-6.8738,0.917,12.6773
19982.0,-6.4811,1.4198,12.536
19992.0,-6.2321,1.7549,12.4834
20002.0,-6.0549,1.5874,12.0309
20012.0,-5.4013,1.5826,11.3342
20022.0,-4.0845,1.9345,9.9623
20032.0,-3.292,1.7765,8.6957
20042.0,-2.0423,1.4844,6.9911
20052.0,-1.0846,1.4796,5.4827
20062.0,-0.6249,1.5083,4.5274
20072.0,-0.9194,1.4461,4.81
20082.0,-1.7095,1.4174,5.8873
20092.0,-2.4038,1.4629,7.1371
20102.0,-3.2034,1.3862,8.576
20112.0,-3.4524,1.1684,9.5002
20122.0,-3.395,1.1732,10.0772
20132.0,-2.8587,1.2713,9.675
20142.0,-2.2266,1.245,8.9376
20152.0,-1.5562,1.4174,7.7764
20162.0,-1.3288,1.573,7.106
20172.0,-1.7549,1.7382,7.0844
20182.0,-2.4828,1.9609,7.7716
20192.0,-3.292,2.5163,8.8992
20202.0,-4.197,2.8419,10.2496
20212.0,-4.6328,2.9712,10.9247
20222.0,-4.8195,2.8395,11.3294
20232.0,-4.9368,2.4493,11.2934
20242.0,-4.628,2.0925,10.5345
20252.0,-4.1108,2.1189,9.6726
20262.0,-3.4836,2.0614,8.7053
20272.0,-3.1436,2.0518,8.3701
20282.0,-3.3782,2.0686,8.6479
20292.0,-4.13,1.9417,9.505
20302.0,-5.0829,1.9249,10.4052
20312.0,-5.9328,1.8172,10.9247
20322.0,-7.039,1.6424,11.6047
20332.0,-7.6255,1.3934,12.2056
20342.0,-7.4771,1.2163,12.6438
20352.0,-7.0366,0.7853,12.299
20362.0,-6.4093,0.644,12.129
20372.0,-5.3103,0.4741,10.8529
20382.0,-4.1851,0.1173,9.6702
20392.0,-3.2729,-0.1293,8.1977
20402.0,-2.4876,-0.1867,7.1515
20412.0,-2.308,-0.1173,6.7421
20422.0,-2.4349,0.0407,7.1491
20432.0,-2.8299,0.249,8.1906
20442.0,-3.1173,0.5195,8.9495
20452.0,-3.0646,0.7709,9.4308
20462.0,-3.0646,0.6369,9.5936
20472.0,-3.2513,0.3783,9.5481
20482.0,-2.9473,0.2993,8.7819
20492.0,-2.7821,0.3998,8.2241
20502.0,-2.9449,0.4262,7.9511
20512.0,-2.9329,0.5507,7.7859
20522.0,-2.9784,0.8691,8.1618
20532.0,-3.4141,0.8308,8.9902
20542.0,-3.9528,0.9697,10.0389
20552.0,-4.6448,0.9218,11.4227
20562.0,-5.9233,0.6393,13.3094
20572.0,-6.4356,0.6752,13.7331
20582.0,-6.0094,0.9553,13.4482
20592.0,-5.3295,1.2857,12.4498
20602.0,-4.7453,1.6616,11.1043
20612.0,-4.4173,1.743,10.4291
20622.0,-4.4604,1.7166,10.1323
20632.0,-4.6926,1.5275,10.082
20642.0,-5.2026,1.3886,10.0868
20652.0,-5.8227,1.4581,10.5417
20662.0,-6.1363,1.5203,10.5943
20672.0,-6.0525,1.4198,10.4435
20682.0,-5.6671,1.5514,10.0676
20692.0,-5.4181,1.6089,9.493
20702.0,-4.8842,1.9106,8.9495
20712.0,-4.0917,1.9321,8.1523
20722.0,-3.7876,1.6448,7.7428
20732.0,-3.3447,1.5682,7.4388
20742.0,-2.9928,1.7454,6.8378
20752.0,-2.8802,1.9441,6.5984
20762.0,-2.9544,2.0566,6.5936
20772.0,-2.9473,2.1955,6.7325
20782.0,-3.134,2.2913,7.1443
20792.0,-3.3208,2.2817,7.6614
20802.0,-3.5195,2.2865,8.0661
20812.0,-3.4381,2.2122,7.8219
20822.0,-3.3279,2.0949,7.4915
20832.0,-3.2944,2.0686,7.2736
20842.0,-3.2609,1.9561,7.2042
20852.0,-3.6392,1.9106,7.8171
20862.0,-4.4005,1.7286,8.9639
20872.0,-4.8315,1.6951,10.0221
20882.0,-4.853,1.834,10.6015
20892.0,-4.2138,2.0734,9.8474
20902.0,-3.4381,1.9585,9.2105
20912.0,-3.067,2.0375,8.8394
20922.0,-3.0047,2.0997,8.6024
20932.0,-3.6033,2.0614,9.1004
20942.0,-4.6064,2.2098,10.1945
20952.0,-5.8275,2.466,11.2456
20962.0,-6.948,2.6145,12.4786
20972.0,-7.3502,2.5809,13.3094
20982.0,-7.6255,2.1907,13.9869
20992.0,-7.331,1.8316,13.5799
21002.0,-6.6798,1.5562,12.6294
21012.0,-5.8634,1.4796,11.3701
21022.0,-4.7142,1.5347,9.6319
21032.0,-3.8307,1.6065,8.4874
21042.0,-3.5865,1.4102,7.6974
21052.0,-3.541,1.1181,7.4531
21062.0,-3.632,0.9385,7.6255
21072.0,-3.6919,0.8164,8.1499
21082.0,-4.0175,0.8643,8.7436
21092.0,-4.0031,0.9218,9.1913
21102.0,-3.8882,1.0822,9.4547
21112.0,-3.5985,1.0726,9.4068
21122.0,-3.0622,1.0726,8.7987
21132.0,-2.5019,1.0247,8.3653
21142.0,-2.1524,1.1253,7.8386
21152.0,-2.1787,1.1827,7.5202
21162.0,-2.2362,1.2905,7.7859
21172.0,-2.6839,1.1851,8.4707
21182.0,-3.1316,1.3168,9.244
21192.0,-3.3591,1.4964,9.5361
21202.0,-3.3758,1.7549,9.5744
21212.0,-3.3519,1.834,9.7037
21222.0,-3.1005,1.7621,9.6486
21232.0,-3.1149,1.5897,9.2081
21242.0,-3.4812,1.2737,9.3877
21252.0,-3.9385,1.0247,9.7348
21262.0,-4.3574,1.0846,10.058
21272.0,-4.537,1.1109,10.2711
21282.0,-4.8315,0.9744,10.5512
21292.0,-5.047,0.7829,10.7691
21302.0,-5.0159,0.6919,10.8409
21312.0,-4.8746,0.5315,10.568
21322.0,-4.4915,0.5195,10.1754
21332.0,-4.0414,0.5195,9.7659
21342.0,-3.6296,0.5674,9.2177
21352.0,-3.395,0.577,8.9423
21362.0,-3.371,0.5818,8.9304
21372.0,-3.2848,0.4812,8.9615
21382.0,-3.2681,0.4597,9.0166
21392.0,-3.1053,0.4884,9.2991
21402.0,-3.1651,0.4429,9.5505
21412.0,-3.3232,0.3208,9.8258
21422.0,-3.1987,0.4357,9.6774
21432.0,-3.043,0.6081,9.6103
21442.0,-2.8706,0.6369,9.2895
21452.0,-2.8132,0.7039,9.2751
21462.0,-2.7916,0.7398,9.4595
21472.0,-2.8299,0.7614,9.7492
21482.0,-2.818,0.7446,10.2663
21492.0,-2.624,0.8428,10.6494
21502.0,-2.6336,1.087,10.9559
21512.0,-2.8323,1.154,11.2815
21522.0,-3.2561,1.087,11.5951
21532.0,-3.6392,1.0223,11.983
21542.0,-3.9528,0.9409,12.3038
21552.0,-4.0438,0.929,12.0524
21562.0,-3.8906,1.0151,11.5353
21572.0,-3.7685,0.9505,11.1474
21582.0,-3.7206,0.9577,10.9535
21592.0,-3.6416,1.0439,11.0085
21602.0,-3.723,1.312,11.0301
21612.0,-4.1875,1.4653,11.1498
21622.0,-4.5274,1.7549,11.0014
21632.0,-4.5346,1.9489,10.8769
21642.0,-4.6208,1.901,10.7548
21652.0,-4.6184,1.9273,11.0325
21662.0,-4.0845,2.083,10.5417
21672.0,-3.5219,2.0686,9.9407
21682.0,-2.7988,2.0782,8.6407
21692.0,-2.0303,2.0782,7.4316
21702.0,-1.5562,1.9872,6.5601
21712.0,-1.5083,1.9944,6.3279
21722.0,-1.6328,2.1141,6.7732
21732.0,-2.0518,2.32,7.6638
21742.0,-2.2434,2.5762,8.6119
21752.0,-2.6384,2.7294,9.5241
21762.0,-2.7964,2.8228,9.7324
21772.0,-2.6049,2.7821,9.4451
21782.0,-2.4086,2.636,8.9399
21792.0,-2.2146,2.5594,8.0541
21802.0,-2.2697,2.5786,7.7476
21812.0,-2.8084,2.3942,7.9176
21822.0,-3.4429,2.3918,8.3534
21832.0,-3.984,2.8276,8.9902
21842.0,-4.5993,2.8395,10.0796
21852.0,-5.1691,2.6863,11.1474
21862.0,-4.956,2.4636,11.4395
21872.0,-4.5226,2.1859,11.3246
21882.0,-4.0199,1.9728,10.975
21892.0,-3.5386,2.0111,10.2352
21902.0,-3.4046,2.0638,10.2161
21912.0,-3.984,2.0111,10.7978
21922.0,-4.6352,1.9704,11.4347
21932.0,-5.2218,1.822,12.2056
21942.0,-5.6192,1.4676,12.6103
21952.0,-6.2704,1.0223,12.5432
21962.0,-6.4787,0.8571,12.129
21972.0,-6.4356,0.6967,11.3198
21982.0,-5.9496,0.328,10.6662
21992.0,-5.272,0.0024,9.9527
22002.0,-4.5418,-0.2251,8.9184
22012.0,-3.8978,-0.4334,8.3246
22022.0,-3.2992,-0.4142,7.4986
22032.0,-2.8826,-0.4381,7.2688
22042.0,-2.5546,-0.3232,7.1443
22052.0,-2.2577,-0.146,7.1658
22062.0,-2.1644,-0.0144,7.4651
22072.0,-2.0135,0.0551,7.7405
22082.0,-1.9273,0.1125,7.8171
22092.0,-1.9704,0.0646,7.7309
22102.0,-2.1213,0.0479,7.75
22112.0,-2.2984,-0.1748,7.7117
22122.0,-2.3439,-0.2849,7.8099
22132.0,-2.2889,-0.261,7.9727
22142.0,-2.3942,-0.1628,8.2217
22152.0,-2.4205,-0.1221,8.7029
22162.0,-2.7461,-0.4764,9.5002
22172.0,-3.2226,-0.6488,10.2807
22182.0,-4.0701,-0.6512,11.1139
22192.0,-5.0159,-0.6991,11.9016
22202.0,-5.2936,-0.6536,12.3254
22212.0,-5.2265,-0.7111,12.3254
22222.0,-4.8411,-0.5435,12.0644
22232.0,-4.5753,-0.2921,11.0636
22242.0,-4.1827,0.0192,10.4411
22252.0,-4.0797,0.2227,9.833
22262.0,-4.0558,0.3687,9.5457
22272.0,-4.0103,0.498,9.4403
22282.0,-3.5291,0.8619,9.1602
22292.0,-3.5554,1.2186,9.4236
22302.0,-4.142,1.3216,10.1035
22312.0,-4.4388,1.8028,10.5728
22322.0,-4.4365,2.1596,10.4196
22332.0,-4.118,2.1428,9.9455
22342.0,-3.2465,2.2266,9.3709
22352.0,-2.545,2.2889,8.6215
22362.0,-1.7669,2.3655,7.8961
22372.0,-1.0558,2.4445,7.1156
22382.0,-0.6416,2.4756,6.6295
22392.0,-0.498,2.4397,6.6822
22402.0,-0.8859,2.5163,6.948
22412.0,-1.6233,2.4397,7.5753
22422.0,-2.1021,2.4588,8.509
22432.0,-2.2649,2.5953,9.2249
22442.0,-2.3487,2.5857,9.6462
22452.0,-2.3487,2.7294,9.6965
22462.0,-2.3391,2.7246,9.5529
22472.0,-2.2745,2.6743,9.3494
22482.0,-2.6456,2.4684,9.4068
22492.0,-2.9042,2.3032,9.6869
22502.0,-3.4261,2.2434,10.0604
22512.0,-4.0773,1.9896,10.3837
22522.0,-4.6184,2.1763,10.7595
22532.0,-4.8052,2.2721,11.1019
22542.0,-4.4748,2.2601,11.3557
22552.0,-4.0103,2.138,11.0588
22562.0,-3.7637,1.8387,10.5153
22572.0,-3.8571,1.3695,10.0556
22582.0,-4.5633,1.0558,10.1155
22592.0,-4.9895,1.0965,10.7141
22602.0,-5.2648,1.008,11.643
22612.0,-5.43,1.0151,12.3876
22622.0,-5.8682,0.9457,12.6222
22632.0,-6.4093,0.838,12.7276
22642.0,-6.8594,0.6512,12.7204
22652.0,-6.8833,0.7039,12.4882
22662.0,-6.4428,0.6536,11.9064
22672.0,-5.7533,0.3041,11.2168
22682.0,-4.5657,0.0431,10.2687
22692.0,-3.4141,-0.067,9.074
22702.0,-2.7294,-0.3783,8.3031
22712.0,-2.3415,-0.6369,7.774
22722.0,-1.834,-0.7207,7.2568
22732.0,-1.4605,-0.7661,7.1012
22742.0,-1.1109,-0.8499,6.8354
22752.0,-0.9098,-0.735,6.778
22762.0,-0.8092,-0.6823,6.6726
22772.0,-0.8428,-0.4956,6.6774
22782.0,-0.8547,-0.4884,7.2712
22792.0,-1.7813,-0.1532,7.9727
22802.0,-1.9752,0.0455,8.4683
22812.0,-2.3631,0.0766,9.1674
22822.0,-2.4134,0.1508,9.4906
22832.0,-2.2314,0.2634,9.5648
22842.0,-2.1524,0.5004,9.5265
22852.0,-2.4157,0.7254,10.0652
22862.0,-2.8994,0.9936,10.8697
22872.0,-3.6823,1.1588,11.995
22882.0,-4.142,1.3886,12.7994
22892.0,-4.1108,1.6831,13.3309
22902.0,-3.6344,1.7885,12.9047
22912.0,-3.0311,1.8364,11.9351
22922.0,-2.6504,1.9561,11.0804
22932.0,-2.6073,1.9249,10.4603
22942.0,-2.897,1.8124,10.2663
22952.0,-3.4692,1.8747,10.0748
22962.0,-3.4022,2.0494,9.9455
22972.0,-3.7397,2.0087,9.663
22982.0,-3.6536,2.0087,9.7707
22992.0,-4.5083,1.8986,10.3884
23002.0,-5.2888,1.968,11.8968
23012.0,-4.9321,2.66,11.8441
23022.0,-4.0701,2.6743,10.9894
23032.0,-2.7869,2.5355,9.2392
23042.0,-1.0343,2.1141,6.5481
23052.0,-0.0934,1.6209,5.0518
23062.0,0.4717,1.5682,3.7924
23072.0,-0.0646,1.2258,4.2832
23082.0,-1.008,1.1372,5.6288
23092.0,-1.8962,1.2785,7.4579
23102.0,-2.8371,1.415,9.3278
23112.0,-2.9353,1.5012,10.6494
23122.0,-2.9113,1.6065,11.0325
23132.0,-2.5019,1.5562,10.6303
23142.0,-2.1739,1.6496,9.4906
23152.0,-2.0566,1.5634,8.3486
23162.0,-1.6472,1.7549,7.4819
23172.0,-2.059,1.743,7.5896
23182.0,-2.7629,1.9106,8.3246
23192.0,-3.723,2.1117,9.9311
23202.0,-4.8363,2.2338,11.7388
23212.0,-5.7197,2.4397,13.1897
23222.0,-5.9807,2.739,13.635
23232.0,-5.8442,2.7749,13.3668
23242.0,-5.0087,2.8922,11.9973
23252.0,-4.1156,2.7773,10.7571
23262.0,-3.4453,2.5019,9.9575
23272.0,-3.7565,2.2913,10.0892
23282.0,-4.525,2.5977,10.7356
23292.0,-5.2529,2.9904,11.7196
23302.0,-5.7269,3.0215,12.6462
23312.0,-6.1818,2.7821,12.8976
23322.0,-6.2776,2.5043,13.1035
23332.0,-6.5769,2.0518,13.2519
23342.0,-7.1156,1.585,13.4243
23352.0,-6.5912,1.0702,12.7755
23362.0,-5.9664,0.3759,11.8728
23372.0,-4.6878,-0.1101,10.2113
23382.0,-3.3016,-0.419,8.5712
23392.0,-2.0782,-0.6369,7.1754
23402.0,-1.549,-0.5531,6.541
23412.0,-1.4054,-0.5531,6.505
23422.0,-1.6472,-0.5818,6.8354
23432.0,-1.9154,-0.6273,7.7045
23442.0,-2.1691,-0.7805,8.3653
23452.0,-2.1763,-0.8547,8.6526
23462.0,-1.8603,-0.8068,7.8961
23472.0,-1.6712,-1.1372,7.3478
23482.0,-2.1356,-1.4437,7.197
23492.0,-2.2338,-1.6544,6.9528
23502.0,-2.5402,-1.585,7.1084
23512.0,-3.1891,-1.4581,7.5058
23522.0,-3.6488,-0.9074,8.3127
23532.0,-4.3646,-0.6512,9.1578
23542.0,-4.7501,-0.4597,9.8306
23552.0,-5.1811,-0.5148,11.0301
23562.0,-5.2146,-0.7183,11.7843
23572.0,-4.9249,-0.9026,12.1027
23582.0,-4.6328,-0.7685,12.1578
23592.0,-4.5059,-0.5411,12.0117
23602.0,-4.4077,-0.4573,11.9088
23612.0,-4.2521,-0.2658,11.2911
23622.0,-4.1468,-0.3184,10.8002
23632.0,-3.9576,-0.1101,10.1107
23642.0,-3.7781,0.3807,9.9575
23652.0,-3.9672,1.0104,9.8258
23662.0,-4.0917,1.8387,9.1482
23672.0,-4.2162,2.4253,8.9376
23682.0,-4.5179,2.3511,9.2751
23692.0,-4.9704,2.1739,9.6486
23702.0,-4.9105,2.0853,10.0628
23712.0,-4.6328,2.2553,10.2352
23722.0,-4.6184,2.2482,10.0796
23732.0,-4.0438,2.4421,9.0429
23742.0,-3.1005,2.4948,7.3502
23752.0,-2.4924,2.1045,6.1052
23762.0,-2.3798,1.9441,5.2672
23772.0,-2.5714,2.2122,5.4851
23782.0,-2.8156,2.2314,6.3734
23792.0,-2.4612,2.2266,7.0102
23802.0,-2.1524,2.4804,7.5681
23812.0,-2.2673,2.6264,8.0397
23822.0,-2.9592,2.7988,8.6431
23832.0,-3.201,2.8802,8.6574
23842.0,-3.3854,2.739,8.7077
23852.0,-3.1891,2.5426,8.6263
23862.0,-2.8443,2.4732,8.5688
23872.0,-2.6288,2.4948,8.6646
23882.0,-2.7078,2.5738,9.098
23892.0,-2.9904,2.6193,9.7827
23902.0,-3.0646,2.5881,10.4172
23912.0,-3.2513,2.241,11.0636
23922.0,-3.0646,1.7933,11.4179
23932.0,-2.9904,1.2977,11.5903
23942.0,-3.2705,1.0247,11.8489
23952.0,-3.4524,1.0774,11.8872
23962.0,-3.7709,1.3024,11.892
23972.0,-4.3024,1.2929,11.88
23982.0,-4.7716,1.2833,11.9279
23992.0,-5.6024,1.0367,12.311
24002.0,-6.5529,0.6823,12.2655
24012.0,-7.1826,0.7685,11.8585
24022.0,-7.1874,0.8068,11.3461
24032.0,-6.4811,0.6536,11.0636
24042.0,-5.5641,0.486,10.3597
24052.0,-4.2042,0.3472,9.2033
24062.0,-3.0023,0.3855,7.8961
24072.0,-2.3463,0.1867,7.0485
24082.0,-1.9489,-0.1676,6.5362
24092.0,-2.296,-0.2346,6.7014
24102.0,-2.8132,-0.3687,7.0509
24112.0,-3.2322,-0.6297,7.7931
24122.0,-3.383,-0.8906,8.2001
24132.0,-2.9521,-1.0175,7.7764
24142.0,-2.6432,-1.4461,7.3215
24152.0,-2.5786,-1.6616,7.1275
24162.0,-2.7725,-1.7214,7.0102
24172.0,-3.0167,-1.5155,7.0198
24182.0,-3.6655,-1.1971,7.6926
24192.0,-4.1922,-1.0534,8.9304
24202.0,-4.3862,-1.1732,9.9862
24212.0,-4.1635,-1.5036,10.4842
24222.0,-3.8235,-1.8723,10.6542
24232.0,-3.8068,-2.2649,10.6949
24242.0,-3.9816,-2.4373,10.6183
24252.0,-4.276,-2.2793,10.5584
24262.0,-4.2928,-2.1021,10.9894
24272.0,-4.0199,-1.6975,11.4658
24282.0,-3.5841,-1.5227,11.2958
24292.0,-3.2034,-1.2426,10.8697
24302.0,-3.3112,-0.8978,10.5369
24312.0,-3.8595,-0.7254,10.2807
24322.0,-4.1108,-0.0527,10.4938
24332.0,-4.1324,0.6752,10.7763
24342.0,-4.0031,1.2833,10.9128
24352.0,-4.1922,1.3599,11.3916
24362.0,-4.4915,1.2019,11.4299
24372.0,-4.5394,1.1444,11.4994
24382.0,-4.1779,1.3599,11.2264
24392.0,-3.8403,1.3168,10.8218
24402.0,-3.5698,1.0846,10.0221
24412.0,-3.3375,1.142,9.6103
24422.0,-2.9497,0.9673,8.8801
24432.0,-2.2936,0.8452,8.4276
24442.0,-1.81,0.9553,8.0613
24452.0,-1.8938,1.1971,8.0565
24462.0,-2.0207,1.47,8.2648
24472.0,-2.3439,1.7382,8.8083
24482.0,-2.6169,1.6664,9.0764
24492.0,-2.6169,1.8387,9.3134
24502.0,-2.2721,1.9201,8.7939
24512.0,-1.9537,1.9728,8.1714
24522.0,-1.9776,1.98,7.7859
24532.0,-2.1739,2.0566,7.6734
24542.0,-2.3008,2.2553,7.7357
24552.0,-2.8874,2.3703,8.4587
24562.0,-3.1891,2.4134,9.0333
24572.0,-3.5171,2.6049,9.6869
24582.0,-3.8523,2.6336,10.4794
24592.0,-4.1659,2.4229,10.9415
24602.0,-4.2784,2.1835,10.9511
24612.0,-4.3862,1.9034,10.8433
24622.0,-4.4819,1.5682,10.908
24632.0,-4.6855,1.2186,10.7955
24642.0,-4.8818,0.9673,10.6877
24652.0,-5.2194,0.9194,10.6446
24662.0,-5.4253,0.8021,10.7524
24672.0,-5.4731,0.6967,10.8338
24682.0,-5.4253,0.7973,10.6781
24692.0,-5.4708,0.8068,10.3214
24702.0,-5.6719,0.8068,10.3046
24712.0,-6.2872,0.7015,10.7691
24722.0,-6.8714,0.8212,11.2647
24732.0,-7.3334,0.8619,12.0811
24742.0,-7.1515,0.7135,11.8944
24752.0,-6.5003,0.6129,11.4539
24762.0,-5.4803,0.486,10.331
24772.0,-4.4412,0.3089,9.1698
24782.0,-3.7373,0.0192,7.9583
24792.0,-3.1795,-0.1963,6.9552
24802.0,-2.9951,-0.2993,7.0198
24812.0,-3.0765,-0.3926,6.9983
24822.0,-3.2154,-0.4357,7.4244
24832.0,-3.0239,-0.5339,7.7859
24842.0,-2.988,-0.644,7.9033
24852.0,-2.8706,-0.7925,7.6495
24862.0,-2.9042,-0.838,7.5346
24872.0,-2.8515,-0.8428,7.5585
24882.0,-2.7318,-0.7015,7.6758
24892.0,-2.9353,-0.3855,8.0325
24902.0,-3.0981,-0.2131,8.4443
24912.0,-3.3184,-0.2394,8.6646
24922.0,-3.5027,-0.2322,8.6933
24932.0,-3.62,-0.2035,8.5186
24942.0,-3.4644,-0.1628,8.4276
24952.0,-3.1939,-0.1341,8.339
24962.0,-3.2202,0.0359,8.7508
24972.0,-4.0558,0.2586,9.7348
24982.0,-4.8028,0.3998,10.8409
24992.0,-5.6551,0.4381,12.1434
25002.0,-6.1603,0.3232,13.1849
25012.0,-6.3422,0.1891,13.7523
25022.0,-6.0358,0.1125,13.2304
25032.0,-5.5258,0.1365,12.1602
25042.0,-4.9536,-0.0527,11.2743
25052.0,-4.7381,-0.1939,11.1067
25062.0,-5.1164,-0.1389,11.2456
25072.0,-5.4995,0.2274,11.236
25082.0,-5.8514,0.7733,11.1187
25092.0,-5.94,1.1995,10.6326
25102.0,-5.794,1.4605,9.9288
25112.0,-5.6216,1.6352,9.6989
25122.0,-5.5115,1.731,9.6774
25132.0,-5.1164,2.0566,9.4284
25142.0,-4.4652,2.2194,9.1339
25152.0,-3.9217,2.1644,9.1937
25162.0,-3.4716,2.0087,8.7029
25172.0,-3.0885,1.7549,7.774
25182.0,-2.8204,1.5155,7.0461
25192.0,-2.7414,1.3144,6.4835
25202.0,-2.8323,1.2665,6.5577
25212.0,-2.8108,1.233,6.8929
25222.0,-3.1436,1.2761,7.6303
25232.0,-3.146,1.6783,8.0397
25242.0,-3.2777,1.8603,8.0014
25252.0,-3.3016,1.798,7.9942
25262.0,-2.9281,1.8387,7.7452
25272.0,-2.7222,1.8244,7.3239
25282.0,-2.4469,1.8052,7.1539
25292.0,-2.3032,1.8531,7.2592
25302.0,-2.2553,2.0446,7.5298
25312.0,-2.3894,2.0327,7.9104
25322.0,-2.49,2.0039,8.5353
25332.0,-2.7294,2.0399,9.0405
25342.0,-3.067,1.9944,9.517
25352.0,-3.893,1.719,10.2951
25362.0,-4.4748,1.5826,10.6829
25372.0,-4.8052,1.3791,10.9487
25382.0,-4.6687,1.2713,10.726
25392.0,-4.209,1.1684,10.2879
25402.0,-3.5817,1.3001,9.8186
25412.0,-3.4093,1.3312,9.596
25422.0,-3.3399,1.3958,9.821
25432.0,-3.1532,1.4772,10.1538
25442.0,-3.0095,1.5826,10.7284
25452.0,-3.9002,1.5155,11.2743
25462.0,-5.6431,1.324,11.7651
25472.0,-7.331,1.1229,11.995
25482.0,-8.0158,1.0151,11.9231
25492.0,-7.4986,1.008,12.0548
25502.0,-5.7245,1.1756,11.2934
25512.0,-3.7397,1.3982,10.0796
25522.0,-2.3966,1.4126,8.7867
25532.0,-1.6496,1.3934,7.8961
25542.0,-1.4413,1.3767,7.7069
25552.0,-1.719,1.5227,8.1187
25562.0,-2.557,1.7358,9.2057
25572.0,-3.474,1.8459,10.1394
25582.0,-4.4532,1.8483,11.0612
25592.0,-5.2553,1.7526,11.5329
25602.0,-5.7844,1.7717,11.8561
25612.0,-5.6503,1.8723,11.825
25622.0,-4.8985,2.0686,11.1666
25632.0,-4.0342,2.0207,10.2831
25642.0,-3.3662,1.901,9.4595
25652.0,-3.0167,1.6735,8.7005
25662.0,-2.5977,1.5107,8.351
25672.0,-2.4325,1.2282,8.1523
25682.0,-2.2673,1.1564,8.193
25692.0,-2.3176,1.154,8.4563
25702.0,-2.4948,1.087,8.8322
25712.0,-2.5331,1.0511,9.0812
25722.0,-2.5714,1.0965,9.0405
25732.0,-2.5498,0.9816,9.0118
25742.0,-2.5043,0.9864,8.6479
25752.0,-2.4876,1.0295,8.7221
25762.0,-2.1691,1.1037,8.7604
25772.0,-2.308,1.063,8.6957
25782.0,-2.2793,1.1588,8.5617
25792.0,-2.5546,1.1349,8.8657
25802.0,-2.4876,1.0511,9.0884
25812.0,-2.3918,0.9888,9.2464
25822.0,-2.2721,0.9361,9.3182
25832.0,-2.0016,0.9673,9.3733
25842.0,-1.8651,0.9553,9.2727
25852.0,-1.7286,1.0367,9.414
25862.0,-1.6783,1.2546,9.3302
25872.0,-1.7789,1.3216,9.3254
25882.0,-1.9441,1.415,9.4547
25892.0,-2.15,1.3527,9.5888
25902.0,-2.4732,1.2737,9.8521
25912.0,-2.7007,1.2258,10.0197
25922.0,-2.9401,1.1205,10.24
25932.0,-3.0406,1.0989,10.568
25942.0,-3.3399,1.0846,10.7955
25952.0,-3.7158,1.0822,11.0899
25962.0,-4.0989,0.8332,11.3916
25972.0,-4.1252,0.6393,11.4036
25982.0,-3.9433,0.4788,10.9702
25992.0,-3.893,0.4262,10.7571
26002.0,-3.7709,0.3519,10.2711
26012.0,-3.6607,0.3807,9.9311
26022.0,-3.5961,0.4166,9.6414
26032.0,-3.4788,0.6105,9.3374
26042.0,-3.3782,0.7877,9.2392
26052.0,-3.2801,0.9218,9.1842
26062.0,-3.3758,1.0127,9.2512
26072.0,-3.3064,1.087,9.1435
26082.0,-3.1723,0.9649,9.0692
26092.0,-3.1651,0.7638,8.8873
26102.0,-3.2681,0.5938,8.9759
26112.0,-3.2657,0.6129,8.9352
26122.0,-3.2513,0.8164,8.9615
26132.0,-3.043,0.9505,9.2799
26142.0,-2.6671,1.0487,9.6822
26152.0,-2.1739,1.4413,9.7707
26162.0,-1.7933,1.5969,9.8378
26172.0,-2.1524,1.2594,9.9192
26182.0,-2.5139,0.8667,10.7093
26192.0,-2.964,0.644,11.4802
26202.0,-3.4644,0.6991,12.3349
26212.0,-3.9624,0.7829,13.046
26222.0,-3.9289,1.2929,13.1801
26232.0,-3.8259,1.6233,12.7467
26242.0,-3.2705,1.8579,12.2224
26252.0,-2.5235,1.9417,11.4563
26262.0,-1.9848,2.1021,10.659
26272.0,-2.1045,2.466,10.1873
26282.0,-2.3798,2.9066,10.0676
26292.0,-2.6695,3.1196,10.2568
26302.0,-3.1915,3.158,11.1187
26312.0,-2.8802,2.9592,10.7548
26322.0,-3.1029,2.6887,11.4922
26332.0,-3.0478,2.8706,11.8178
26342.0,-2.7773,3.2872,11.0516
26352.0,-2.2458,3.4477,10.1945
26362.0,-1.5036,3.5458,8.9495
26372.0,-0.6369,3.6272,7.8314
26382.0,0.0694,3.3734,7.2065
26392.0,0.2035,3.2178,7.1012
26402.0,0.0383,3.2992,6.9288
26412.0,-0.4142,3.4453,7.0964
26422.0,-0.9984,3.5482,7.6974
26432.0,-1.3838,3.7589,8.442
26442.0,-1.9656,3.8427,9.481
26452.0,-2.0518,3.802,10.0796
26462.0,-2.0135,3.5626,10.0102
26472.0,-2.3343,3.1101,9.9311
26482.0,-2.2362,2.8228,9.3206
26492.0,-2.2434,2.6217,8.4563
26502.0,-2.3655,2.624,8.3294
26512.0,-3.2034,2.7892,8.8921
26522.0,-4.063,2.5833,9.7276
26532.0,-5.0613,2.6336,11.7843
26542.0,-5.6527,2.332,12.5767
26552.0,-5.7628,2.0016,13.9797
26562.0,-5.296,2.0303,13.6326
26572.0,-4.7716,2.2505,13.2064
26582.0,-4.3551,2.0853,12.3301
26592.0,-4.1444,1.4413,11.2144
26602.0,-3.9145,0.826,10.4267
26612.0,-3.4309,0.4477,9.754
26622.0,-2.9042,0.4812,9.3398
26632.0,-2.8395,0.51,9.4188
26642.0,-3.3878,0.6895,9.5864
26652.0,-4.3598,0.8428,10.0892
26662.0,-4.9488,0.8835,10.0533
26672.0,-5.2672,0.8116,10.1873
26682.0,-5.0494,0.3687,9.9671
26692.0,-4.719,0.1365,9.5984
26702.0,-4.0079,-0.1532,8.8442
26712.0,-3.0215,-0.1053,7.8147
26722.0,-1.9632,-0.1867,6.8642
26732.0,-1.3312,-0.3759,6.1723
26742.0,-0.6752,-0.3807,5.2002
26752.0,-0.4884,-0.4788,4.6304
26762.0,-0.5531,-0.2801,4.3239
26772.0,-0.9816,-0.0718,4.7932
26782.0,-1.482,-0.0359,5.8514
26792.0,-2.2913,-0.0622,7.3287
26802.0,-2.9856,-0.0263,9.0118
26812.0,-3.8092,0.0072,10.4651
26822.0,-4.1084,0.0503,10.8218
26832.0,-3.8475,0.3184,10.398
26842.0,-3.8475,0.34,9.991
26852.0,-4.0558,-0.0096,9.8162
26862.0,-4.5322,-0.1796,9.9024
26872.0,-4.616,-0.0958,9.8378
26882.0,-4.8483,0.1245,10.094
26892.0,-5.4324,-0.1269,10.8912
26902.0,-5.4133,-0.5938,11.8848
26912.0,-5.1475,-1.1325,12.5815
26922.0,-5.0949,-1.2378,12.7443
26932.0,-4.786,-0.8978,12.1841
26942.0,-4.7118,-0.3496,11.4802
26952.0,-4.5825,-0.0335,11.3006
26962.0,-4.3,0.3735,11.054
26972.0,-4.5969,0.6201,10.6159
26982.0,-4.9033,1.0199,10.1155
26992.0,-5.2313,0.9649,10.6135
27002.0,-5.3319,0.8691,11.497
27012.0,-4.9321,1.1133,11.655
27022.0,-4.2234,1.4868,10.9846
27032.0,-3.5961,1.6592,9.4427
27042.0,-2.8898,1.8866,8.3103
27052.0,-2.1691,1.968,7.1658
27062.0,-2.1117,1.968,6.6655
27072.0,-2.2075,1.7813,6.4332
27082.0,-2.3487,1.719,6.5027
27092.0,-2.4493,1.7406,7.0868
27102.0,-2.7174,1.8196,8.1666
27112.0,-3.0454,2.217,9.1147
27122.0,-3.4692,2.4205,10.2855
27132.0,-3.6416,2.5426,10.8266
27142.0,-3.5338,2.5809,10.7548
27152.0,-3.1891,2.3535,9.5505
27162.0,-2.5522,2.1859,8.4132
27172.0,-2.3631,2.1572,7.4603
27182.0,-2.332,2.1835,7.039
27192.0,-3.0215,2.217,7.264
27202.0,-3.893,2.3296,8.1786
27212.0,-4.7094,2.5905,9.481
27222.0,-5.0996,2.66,10.2639
27232.0,-5.2457,2.5881,10.9415
27242.0,-5.2002,2.4301,11.0708
27252.0,-4.8243,2.2314,10.6638
27262.0,-4.3934,2.0183,10.4363
27272.0,-4.5849,1.7741,10.2568
27282.0,-4.8291,1.8172,10.41
27292.0,-5.4995,1.7813,10.884
27302.0,-6.0142,1.8603,11.3054
27312.0,-6.28,1.7262,11.5041
27322.0,-6.6607,1.3503,11.3629
27332.0,-7.2736,0.9505,11.1713
27342.0,-7.6854,0.8523,11.157
27352.0,-7.4939,0.7757,11.0804
27362.0,-7.1802,0.6752,11.4227
27372.0,-6.5434,0.431,11.2911
27382.0,-5.3199,0.2346,10.4914
27392.0,-4.1396,0.0239,9.4403
27402.0,-3.2226,-0.2993,8.0924
27412.0,-2.6384,-0.5219,6.9432
27422.0,-2.1572,-0.3591,6.5386
27432.0,-2.2577,-0.431,6.4955
27442.0,-2.7126,-0.4214,7.4795
27452.0,-2.8922,-0.1221,7.683
27462.0,-2.8467,-0.0168,7.9703
27472.0,-2.8611,-0.0239,8.1331
27482.0,-2.9592,-0.182,8.2648
27492.0,-2.9137,-0.1844,8.5353
27502.0,-2.7701,-0.2131,8.5736
27512.0,-2.4732,-0.1915,8.2672
27522.0,-2.3152,-0.4549,8.0565
27532.0,-2.3272,-0.3998,8.0804
27542.0,-2.9664,-0.5531,8.7819
27552.0,-3.9265,-0.4764,9.8258
27562.0,-4.5298,-0.2993,10.8457
27572.0,-4.6304,0.079,11.3868
27582.0,-4.5633,0.1652,11.8465
27592.0,-4.2449,0.2394,11.8178
27602.0,-3.9169,0.3424,11.3916
27612.0,-3.5338,0.1939,10.7284
27622.0,-3.5769,0.2274,10.1897
27632.0,-3.8499,0.1532,10.0389
27642.0,-4.5969,0.1365,9.7037
27652.0,-5.2553,0.3328,9.5385
27662.0,-5.5186,0.6464,9.5098
27672.0,-5.6886,0.7518,10.4507
27682.0,-5.6862,1.0846,11.0468
27692.0,-5.5306,1.7813,11.2623
27702.0,-4.9536,2.3391,10.6901
27712.0,-4.4915,2.3056,10.2256
27722.0,-3.9504,1.9465,9.0237
27732.0,-3.3255,1.7454,7.7381
27742.0,-2.897,1.6089,6.8211
27752.0,-2.5857,1.4533,6.3901
27762.0,-2.5594,1.5514,6.4284
27772.0,-2.6121,1.798,7.3646
27782.0,-2.9736,2.1572,8.9447
27792.0,-3.3279,2.4565,10.4555
27802.0,-3.1292,2.6839,11.1019
27812.0,-2.9473,2.739,11.0804
27822.0,-2.478,2.7653,10.0365
27832.0,-2.3367,2.6504,8.8178
27842.0,-2.3032,2.5187,7.7907
27852.0,-2.4397,2.3679,7.3574
27862.0,-2.6719,2.2458,7.4101
27872.0,-3.292,2.1931,8.1762
27882.0,-3.8331,2.3703,8.8298
27892.0,-3.984,2.7078,9.5385
27902.0,-4.197,2.7701,10.137
27912.0,-4.367,2.6839,10.1083
27922.0,-4.6471,2.4445,9.9503
27932.0,-4.7381,2.1476,9.7157
27942.0,-4.4556,2.0997,9.2751
27952.0,-4.1324,2.071,8.9184
27962.0,-4.2449,2.0734,8.9136
27972.0,-4.8507,2.0111,9.3063
27982.0,-5.5809,2.0111,9.5888
27992.0,-6.3542,1.9728,10.1323
28002.0,-6.9408,1.7693,10.7571
28012.0,-7.7141,1.2833,11.327
28022.0,-8.4635,0.8978,11.7867
28032.0,-8.667,0.8835,11.8369
28042.0,-8.1283,0.8332,11.631
28052.0,-7.2616,0.8021,11.2001
28062.0,-6.3877,0.9816,10.5584
28072.0,-5.5162,0.9026,9.8928
28082.0,-4.9273,0.565,9.4308
28092.0,-4.1276,0.3519,8.7795
28102.0,-3.5913,0.2035,7.932
28112.0,-3.0478,0.2179,7.2832
28122.0,-2.9066,-0.0168,6.9049
28132.0,-3.3351,-0.0479,7.5441
28142.0,-3.9169,-0.2298,8.442
28152.0,-4.2042,-0.17,9.3661
28162.0,-4.1635,0.0766,9.4954
28172.0,-3.735,0.2274,9.3278
28182.0,-3.3016,0.2705,8.7891
28192.0,-2.8683,0.1341,8.0445
28202.0,-2.5546,-0.0144,7.1946
28212.0,-2.4469,-0.2825,6.6846
28222.0,-2.7318,-0.4549,6.9408
28232.0,-3.1795,-0.5243,7.288
28242.0,-3.3734,-0.3496,8.1044
28252.0,-3.5003,-0.1245,8.9352
28262.0,-3.7086,0.0622,10.0078
28272.0,-3.8427,0.1317,10.3573
28282.0,-3.9792,0.1724,10.1682
28292.0,-4.4341,0.2035,10.0341
28302.0,-5.0182,0.1101,9.742
28312.0,-5.3774,0.3041,9.4403
28322.0,-5.6216,0.4381,9.4954
28332.0,-5.4755,0.4764,9.9024
28342.0,-5.0518,0.5243,10.5967
28352.0,-4.853,0.4836,11.0085
28362.0,-4.9632,0.2801,11.1259
28372.0,-5.3486,0.0886,11.0875
28382.0,-5.5857,0.0958,10.9152
28392.0,-5.533,0.2705,10.6374
28402.0,-5.3103,0.5507,10.1323
28412.0,-4.9081,0.984,9.517
28422.0,-4.7405,1.1636,9.1866
28432.0,-4.5633,1.0056,8.5641
28442.0,-4.5035,0.9888,8.5617
28452.0,-4.2545,0.9098,8.521
28462.0,-4.3287,0.7853,9.0644
28472.0,-4.1994,0.8475,9.2512
28482.0,-4.1851,0.8667,9.3134
28492.0,-3.8882,0.8859,9.1147
28502.0,-3.6224,1.0032,9.0692
28512.0,-3.3854,1.0894,8.6
28522.0,-3.2082,1.2234,8.2983
28532.0,-2.8539,1.4676,7.7979
28542.0,-2.648,1.4102,7.6591
28552.0,-2.4517,1.3527,7.7764
28562.0,-2.3487,1.4222,7.6088
28572.0,-2.3511,1.5826,7.6926
28582.0,-2.4373,1.6185,7.8937
28592.0,-2.2673,1.5921,7.8195
28602.0,-2.3128,1.6712,7.8338
28612.0,-2.3846,1.7286,7.9033
28622.0,-2.5546,1.5275,7.9942
28632.0,-2.7294,1.5179,8.1235
28642.0,-2.6743,1.7645,8.2432
28652.0,-2.9856,1.9609,8.7005
28662.0,-3.3351,2.15,9.1243
28672.0,-3.6129,2.4373,9.7444
28682.0,-3.7924,2.3008,10.1299
28692.0,-3.9935,2.241,10.2903
28702.0,-4.4221,2.047,10.2185
28712.0,-4.6519,2.0423,10.0772
28722.0,-4.6711,2.1572,9.4906
28732.0,-4.8794,2.1931,9.007
28742.0,-4.7716,2.1739,8.9184
28752.0,-5.3199,2.0207,9.572
28762.0,-5.8155,1.8603,10.2304
28772.0,-6.1339,1.6855,10.4028
28782.0,-6.292,1.7885,10.137
28792.0,-6.1723,1.7071,9.8881
28802.0,-6.0454,1.5443,9.7276
28812.0,-5.7652,1.6975,9.7707
28822.0,-5.9328,1.6257,9.8354
28832.0,-6.2824,1.5514,10.4124
28842.0,-6.1244,1.6568,10.2735
28852.0,-5.4564,1.719,9.6151
28862.0,-4.604,1.5107,8.5401
28872.0,-3.9193,1.64,7.8051
28882.0,-3.6057,1.4796,7.4316
28892.0,-3.699,1.5467,7.8458
28902.0,-4.0893,1.5706,8.5377
28912.0,-4.6017,1.7861,9.2105
28922.0,-4.9775,1.98,9.9335
28932.0,-4.7908,1.98,9.7947
28942.0,-4.537,2.0662,9.4858
28952.0,-4.3742,2.0159,9.3685
28962.0,-4.4867,2.2386,9.7444
28972.0,-4.5897,2.4948,10.003
28982.0,-4.4532,2.7821,9.924
28992.0,-4.3263,2.9568,9.7564
29002.0,-4.0773,2.9497,9.3039
29012.0,-4.0247,2.7414,9.086
29022.0,-4.1515,2.4852,9.4763
29032.0,-4.5777,2.2817,9.7779
29042.0,-4.9704,2.1763,10.2544
29052.0,-5.1882,2.2075,10.4411
29062.0,-5.4444,2.1332,10.3908
29072.0,-5.3989,2.1572,10.2208
29082.0,-5.2744,2.1955,10.1658
29092.0,-5.2002,2.0183,10.2185
29102.0,-5.0398,1.9968,10.1011
29112.0,-4.8411,2.0542,9.8521
29122.0,-4.604,1.9992,9.5984
29132.0,-4.5873,1.8914,9.3637
29142.0,-4.5179,2.0063,9.1866
29152.0,-4.604,1.9154,9.2919
29162.0,-4.7764,1.8411,9.5026
29172.0,-4.9033,2.1093,9.7516
29182.0,-4.7621,2.2003,9.6965
29192.0,-4.5825,2.1093,9.675
29202.0,-4.3503,2.0111,9.3254
29212.0,-4.142,2.0111,9.019
29222.0,-3.9456,2.0303,8.7317
29232.0,-3.711,2.0446,8.6119
29242.0,-3.7852,1.9489,9.0357
29252.0,-4.0103,2.0327,9.2727
29262.0,-3.9887,2.1644,9.3853
29272.0,-3.9433,2.1644,9.4667
29282.0,-3.9217,2.2122,9.402
29292.0,-3.7302,2.2482,9.1315
29302.0,-3.5482,2.1739,9.1818
29312.0,-3.5961,2.1021,9.2249
29322.0,-3.5913,2.0806,9.2296
29332.0,-3.5961,1.9513,9.3398
29342.0,-3.5961,2.0686,9.2344
29352.0,-3.723,2.0853,9.2871
29362.0,-3.8834,2.1835,9.4571
29372.0,-3.9265,2.1428,9.6654
29382.0,-3.8188,2.0758,9.5217
29392.0,-3.6129,1.9968,9.1123
29402.0,-3.3351,1.9201,8.6933
29412.0,-3.1077,1.8579,8.4946
29422.0,-2.9018,1.8531,8.3127
29432.0,-2.8922,1.7478,8.4515
29442.0,-3.1771,1.6855,8.5832
29452.0,-3.45,1.573,9.0549
29462.0,-3.6368,1.6568,9.1028
29472.0,-3.4884,1.719,9.1004
29482.0,-3.0861,1.7597,8.6886
29492.0,-2.8323,1.7334,8.6431
29502.0,-2.6767,1.6352,8.6622
29512.0,-2.6552,1.6352,8.849
29522.0,-2.3846,1.585,8.7029
29532.0,-2.2003,1.494,8.7963
29542.0,-2.1332,1.2785,8.7317
29552.0,-2.1428,1.2929,9.0046
29562.0,-2.4038,1.2833,9.3853
29572.0,-2.9951,1.2546,10.1754
29582.0,-3.553,1.1013,10.9415
29592.0,-3.8786,1.0534,11.7723
29602.0,-3.869,0.9649,12.0716
29612.0,-3.6679,0.8164,11.8561
29622.0,-3.1125,0.8619,11.473
29632.0,-2.3176,0.9337,10.6015
29642.0,-1.7717,0.8356,9.8402
29652.0,-1.336,0.9361,9.6079
29662.0,-1.5131,0.9074,9.7731
29672.0,-1.98,1.1349,10.3118
29682.0,-2.5019,1.5514,10.7787
29692.0,-3.2441,1.8938,11.248
29702.0,-3.9504,2.138,11.7316
29712.0,-4.1108,2.3798,11.6717
29722.0,-3.9696,2.3846,11.3605
29732.0,-3.5817,2.4134,10.5441
29742.0,-3.055,2.4086,9.5122
29752.0,-2.6097,2.4325,8.4635
29762.0,-2.5067,2.3798,7.9799
29772.0,-2.8539,2.15,8.2361
29782.0,-2.9951,2.1931,8.2504
29792.0,-3.3088,2.0542,8.4228
29802.0,-3.6392,1.9465,8.6646
29812.0,-3.7373,2.0159,8.7532
29822.0,-3.5314,2.0518,8.6766
29832.0,-3.3088,2.0925,8.5258
29842.0,-3.213,2.1811,8.406
29852.0,-3.0646,2.1691,8.2552
29862.0,-3.1101,2.2505,8.1427
29872.0,-3.1005,2.2817,8.1906
29882.0,-3.0957,2.4205,8.1163
29892.0,-3.158,2.4445,8.2337
29902.0,-3.122,2.6839,8.3246
29912.0,-3.2825,2.964,8.4827
29922.0,-3.462,3.3303,9.2464
29932.0,-3.8882,3.6799,10.0604
29942.0,-4.561,3.7924,11.0181
29952.0,-4.9656,3.4644,11.7172
29962.0,-5.0996,3.055,11.3318
29972.0,-4.9967,2.6887,10.7715
29982.0,-4.5825,2.4205,10.2783
29992.0,-4.0199,2.229,9.7061
30002.0,-3.8714,2.0111,9.3925
30012.0,-4.1252,1.889,9.3613
30022.0,-4.6017,1.8268,9.6798
30032.0,-5.2409,1.6544,10.2376
30042.0,-5.8826,1.3096,11.2839
30052.0,-6.8139,1.0056,11.9495
30062.0,-7.3574,0.8092,12.2416
30072.0,-7.3526,0.838,12.2248
30082.0,-6.8091,0.9361,11.7603
30092.0,-6.2297,0.7542,11.4922
30102.0,-5.8969,0.1556,10.8769
30112.0,-5.5929,-0.2873,10.3621
30122.0,-5.0254,-0.7518,9.5217
30132.0,-4.2473,-1.1684,8.2696
30142.0,-3.4548,-1.4054,6.9863
30152.0,-2.7342,-1.482,5.9041
30162.0,-2.8228,-0.9553,6.1052
30172.0,-2.9042,-0.5363,6.4069
30182.0,-3.6512,-0.3591,7.5776
30192.0,-4.5633,-0.5531,9.2392
30202.0,-4.6424,-0.5124,10.3406
30212.0,-3.9672,-0.2969,10.1011
30222.0,-3.5506,-0.3711,9.3446
30232.0,-3.0813,-0.5818,8.5018
30242.0,-2.4134,-0.6584,7.2975
30252.0,-2.2817,-0.8906,6.7564
30262.0,-2.6647,-1.2306,6.5817
30272.0,-3.158,-1.257,7.6375
30282.0,-3.3686,-1.2977,8.6574
30292.0,-4.3431,-1.1971,10.2185
30302.0,-5.0302,-1.2785,11.8657
30312.0,-5.7652,-1.5347,13.3573
30322.0,-6.0478,-1.8747,14.0683
30332.0,-5.5426,-1.8723,13.2663
30342.0,-4.7262,-1.8699,11.722
30352.0,-3.8188,-1.5562,10.1323
30362.0,-3.0622,-1.1516,8.2145
30372.0,-2.9353,-0.7207,8.1331
30382.0,-3.2777,0.0958,9.1459
30392.0,-4.2545,0.735,10.0844
30402.0,-5.296,1.3001,11.473
30412.0,-5.4588,2.0877,11.6071
30422.0,-5.5234,2.3176,11.4778
30432.0,-5.2026,2.1117,11.5353
30442.0,-4.4628,2.0255,10.726
30452.0,-3.2537,1.9154,9.3757
30462.0,-2.4995,1.7909,8.4922
30472.0,-1.6999,1.7166,7.2472
30482.0,-1.3791,1.6735,6.5553
30492.0,-1.482,1.506,6.6894
30502.0,-1.992,1.2905,7.4531
30512.0,-2.8443,1.4557,8.2337
30522.0,-3.2298,2.0399,9.1291
30532.0,-3.3567,2.3679,9.7947
30542.0,-3.0287,2.4804,10.1897
30552.0,-2.4014,2.5259,9.8258
30562.0,-2.0279,2.5355,9.0022
30572.0,-2.0303,2.4972,8.1882
30582.0,-2.1787,2.375,7.6207
30592.0,-2.4612,2.4134,7.6543
30602.0,-3.201,2.4229,8.0876
30612.0,-3.8427,2.399,9.007
30622.0,-4.3167,2.8012,9.6941
30632.0,-4.5993,2.8276,10.1682
30642.0,-4.6376,2.7342,10.4244
30652.0,-4.604,2.4038,10.7045
30662.0,-4.798,2.1189,10.9559
30672.0,-4.4005,1.9465,10.7739
30682.0,-3.9433,1.7262,10.0963
30692.0,-3.79,1.4437,10.1011
30702.0,-3.5626,1.6185,9.6558
30712.0,-3.7038,1.6903,9.5074
30722.0,-4.063,1.4748,9.5002
30732.0,-4.0606,1.0032,9.2273
30742.0,-4.4915,0.4477,9.256
30752.0,-5.4372,-0.0215,9.1267
30762.0,-6.4045,-0.2322,9.1195
30772.0,-7.1395,-0.3807,9.8282
30782.0,-7.4268,-0.8021,10.4076
30792.0,-6.8402,-1.0223,10.1107
30802.0,-5.5713,-0.9026,8.8849
30812.0,-4.2904,-0.8284,7.1922
30822.0,-3.5338,-0.7709,6.11
30832.0,-3.2513,-0.5052,5.6383
30842.0,-2.9473,-0.3711,5.4564
30852.0,-3.3854,-0.5363,6.3782
30862.0,-3.8834,-0.3615,7.6662
30872.0,-4.1348,-0.1724,8.904
30882.0,-4.0606,-0.0814,9.2727
30892.0,-3.7757,-0.2274,9.335
30902.0,-3.0957,-0.0215,9.007
30912.0,-2.8611,-0.0263,8.6119
30922.0,-3.2848,-0.1006,8.8753
30932.0,-3.5841,-0.1676,9.2488
30942.0,-4.0606,-0.1077,10.1035
30952.0,-4.2186,0.1508,10.422
30962.0,-4.5586,0.2011,11.1067
30972.0,-4.4436,0.4381,11.1115
30982.0,-4.1252,0.4357,11.1498
30992.0,-3.814,0.4142,10.9774
31002.0,-4.1276,0.2658,11.406
31012.0,-4.4628,0.2011,11.8585
31022.0,-4.7788,0.1867,12.3756
31032.0,-4.7573,0.2969,12.3756
31042.0,-4.7597,0.2705,12.3613
31052.0,-5.1068,0.2251,11.8274
31062.0,-5.8251,0.0958,11.3246
31072.0,-6.1842,0.1245,10.8553
31082.0,-5.6623,0.4405,9.7707
31092.0,-4.549,1.0606,9.4116
31102.0,-3.9768,1.2546,9.1435
31112.0,-3.96,1.2977,9.335
31122.0,-3.7038,1.6161,9.5648
31132.0,-3.7086,1.6759,9.912
31142.0,-3.1556,1.7621,9.1866
31152.0,-2.5043,2.1237,8.497
31162.0,-1.7238,2.0782,7.3502
31172.0,-1.2641,1.9297,6.2968
31182.0,-1.0989,1.7142,5.612
31192.0,-1.8148,1.4724,6.0693
31202.0,-2.6408,1.2498,6.8929
31212.0,-3.2753,1.245,8.4587
31222.0,-3.4955,1.4413,9.8904
31232.0,-3.4357,1.822,10.5225
31242.0,-2.7749,2.2194,10.3022
31252.0,-2.2601,2.2505,9.6319
31262.0,-2.0159,2.1237,8.7173
31272.0,-2.1644,1.9585,8.2193
31282.0,-2.6097,1.5443,8.0565
31292.0,-3.4069,1.2953,8.2839
31302.0,-4.312,1.4844,9.2464
31312.0,-4.8842,1.6281,10.2113
31322.0,-5.3534,1.6065,11.3222
31332.0,-5.5378,1.4054,11.9471
31342.0,-5.1811,1.154,11.7268
31352.0,-4.2641,1.0678,10.5129
31362.0,-3.474,0.838,9.4188
31372.0,-3.043,0.7614,8.4827
31382.0,-3.3926,0.668,8.521
31392.0,-4.4365,0.7494,9.3972
31402.0,-5.6671,0.4166,10.9559
31412.0,-6.7086,0.2083,12.0045
31422.0,-7.7117,-0.1437,13.0771
31432.0,-8.746,-0.2394,13.6278
31442.0,-9.177,-0.0622,13.7571
31452.0,-8.5736,0.2298,12.9191
31462.0,-7.3885,0.0407,12.2583
31472.0,-5.8155,-0.2466,10.5129
31482.0,-4.4197,-0.3304,8.8466
31492.0,-3.1747,-0.5076,7.1299
31502.0,-2.4134,-0.7422,6.043
31512.0,-1.834,-0.7183,5.4899
31522.0,-1.8771,-0.7542,5.8155
31532.0,-2.32,-0.6608,6.426
31542.0,-2.6169,-0.4956,7.2329
31552.0,-2.6624,-0.2921,7.671
31562.0,-2.8683,-0.1484,8.4587
31572.0,-3.1987,-0.1652,8.8729
31582.0,-3.3615,-0.1676,9.0788
31592.0,-3.0239,-0.1844,9.1195
31602.0,-2.4612,-0.1939,8.7604
31612.0,-1.9704,-0.2801,8.2552
31622.0,-1.8747,-0.2753,7.9966
31632.0,-2.0949,-0.3519,8.2217
31642.0,-2.739,-0.3232,8.7029
31652.0,-3.4381,-0.395,9.5553
31662.0,-4.0318,-0.5076,10.5536
31672.0,-4.604,-0.7877,12.0357
31682.0,-5.2337,-1.233,12.888
31692.0,-5.4109,-1.2665,13.1298
31702.0,-5.2457,-1.2402,12.6725
31712.0,-4.9823,-1.3096,12.2296
31722.0,-4.1372,-1.3048,11.1354
31732.0,-3.565,-1.2139,9.9695
31742.0,-3.3112,-0.905,8.4611
31752.0,-3.565,-0.735,8.5976
31762.0,-4.1252,0.0192,9.1889
31772.0,-4.4915,0.8523,9.5481
31782.0,-4.8147,1.5131,10.0796
31792.0,-4.9871,1.9537,10.2999
31802.0,-5.1475,2.0877,9.6367
31812.0,-5.2744,2.2649,9.6678
31822.0,-4.5729,2.4445,8.7484
31832.0,-4.0917,2.5498,8.7149
31842.0,-3.8762,2.1835,8.3749
31852.0,-3.9361,2.0782,8.4276
31862.0,-3.893,2.1117,8.0876
31872.0,-3.5195,2.1141,7.4101
31882.0,-3.0574,1.889,7.0773
31892.0,-2.7485,1.6759,7.1228
31902.0,-2.7318,1.6999,7.5274
31912.0,-2.7054,1.6161,7.8602
31922.0,-2.6863,1.506,7.9727
31932.0,-2.7126,1.4365,8.2528
31942.0,-2.794,1.4293,8.2337
31952.0,-2.8395,1.4653,8.4635
31962.0,-2.9377,1.6352,8.4491
31972.0,-3.1029,1.7645,8.6957
31982.0,-3.2848,1.798,9.1123
31992.0,-3.3615,2.0207,9.5098
32002.0,-3.4764,2.0087,9.7348
32012.0,-3.6799,1.9489,10.1897
32022.0,-3.6703,1.8435,10.386
32032.0,-3.6559,1.6712,10.5273
32042.0,-3.5769,1.7142,10.5201
32052.0,-3.565,1.7238,10.6757
32062.0,-3.7589,1.5036,11.3294
32072.0,-3.8547,1.1779,11.3485
32082.0,-4.0175,1.0534,11.5975
32092.0,-4.5418,0.9266,11.5041
32102.0,-5.1834,1.075,11.2791
32112.0,-5.7892,1.2522,10.9798
32122.0,-6.5362,1.1085,11.3581
32132.0,-7.6064,0.8643,11.8058
32142.0,-8.7005,0.7542,12.4977
32152.0,-9.1315,0.7254,12.7802
32162.0,-8.8035,0.6823,12.5504
32172.0,-7.6926,0.656,11.5065
32182.0,-6.7852,0.4429,10.6949
32192.0,-5.9089,0.1915,9.6965
32202.0,-4.525,0.2083,8.3629
32212.0,-3.96,-0.1101,7.7189
32222.0,-3.4333,-0.1508,7.2951
32232.0,-3.1867,-0.1604,7.1323
32242.0,-3.1723,-0.0934,7.6543
32252.0,-3.158,-0.0359,7.9871
32262.0,-3.3734,-0.1389,8.5162
32272.0,-3.5267,-0.2538,8.8514
32282.0,-3.4069,-0.316,8.8202
32292.0,-3.0095,-0.3424,8.6574
32302.0,-2.5881,-0.2801,8.1954
32312.0,-2.241,-0.3496,7.5346
32322.0,-1.8292,-0.1987,6.5912
32332.0,-1.6544,-0.0742,6.3638
32342.0,-1.8986,-0.103,7.173
32352.0,-2.1428,-0.0862,7.9392
32362.0,-2.7222,0.0503,9.4499
32372.0,-3.462,0.3112,10.7691
32382.0,-4.0893,0.3352,11.6789
32392.0,-4.1827,0.4477,12.3158
32402.0,-4.039,0.1604,12.6893
32412.0,-4.0007,-0.1556,12.5025
32422.0,-3.735,-0.3328,11.8202
32432.0,-3.4477,-0.3759,10.8625
32442.0,-3.4572,-0.4357,10.0245
32452.0,-3.5219,-0.2993,9.9264
32462.0,-3.7038,0.2945,9.9168
32472.0,-3.8211,1.0056,10.0461
32482.0,-3.7493,1.5107,10.3501
32492.0,-3.7038,1.6448,10.2855
32502.0,-3.7852,1.4988,9.9766
32512.0,-4.3646,1.4653,9.8186
32522.0,-4.5179,1.5107,9.6319
32532.0,-4.3718,1.4317,9.165
32542.0,-4.1827,1.5897,8.8466
32552.0,-3.8858,1.6927,8.2576
32562.0,-3.7637,1.9465,7.7333
32572.0,-3.4046,2.2889,7.4172
32582.0,-2.8683,2.6073,7.1778
32592.0,-2.5067,2.7653,7.0294
32602.0,-2.3343,2.8491,7.1898
32612.0,-2.4325,2.7964,7.3287
32622.0,-2.5355,2.6576,7.7093
32632.0,-2.66,2.5474,7.9224
32642.0,-2.7078,2.4517,8.3941
32652.0,-2.8204,2.5426,8.4515
32662.0,-2.6767,2.4014,8.7269
32672.0,-2.5929,2.1979,8.8562
32682.0,-2.2434,2.0949,8.9088
32692.0,-2.1093,2.0782,8.6431
32702.0,-2.3487,2.047,9.1698
32712.0,-2.5307,1.9441,9.8234
32722.0,-2.8323,1.8364,10.8386
32732.0,-3.1747,1.9225,11.6765
32742.0,-3.5386,1.9537,12.0716
32752.0,-3.6559,1.7597,11.7172
32762.0,-3.8523,1.3671,11.1953
32772.0,-4.0175,1.087,10.5345
32782.0,-4.2018,1.1516,10.0485
32792.0,-4.525,1.2953,9.9838
32802.0,-4.5849,1.4676,10.2496
32812.0,-4.8746,1.5275,10.5967
32822.0,-5.5426,1.482,10.8577
32832.0,-6.4045,1.5658,11.4754
32842.0,-7.0988,1.5826,12.0189
32852.0,-7.1371,1.6257,12.1745
32862.0,-6.6774,1.5706,11.7819
32872.0,-5.7341,1.4437,11.1474
32882.0,-4.3886,1.3336,10.0892
32892.0,-3.158,1.1827,8.6503
32902.0,-2.0662,0.8116,7.2161
32912.0,-1.4389,0.4334,6.5553
32922.0,-1.312,0.0575,6.177
32932.0,-1.6664,0.1341,6.6774
32942.0,-2.0997,0.3424,7.5154
32952.0,-2.4277,0.7278,8.193
32962.0,-2.6025,0.9098,8.4922
32972.0,-2.9113,1.008,9.007
32982.0,-2.9928,1.1612,9.0477
32992.0,-3.3399,1.1827,9.8833
33002.0,-3.474,1.2977,10.3956
33012.0,-3.5482,1.3647,10.9247
33022.0,-3.3519,1.4581,10.9463
33032.0,-2.9209,1.3599,10.6039
33042.0,-2.4277,1.1612,10.3022
33052.0,-2.2601,0.7494,10.058
33062.0,-2.2721,0.5435,9.979
33072.0,-2.9161,0.3591,10.7763
33082.0,-3.9049,0.2538,11.6813
33092.0,-4.4604,0.3759,12.3948
33102.0,-4.3574,0.7494,12.153
33112.0,-3.9002,1.0511,11.4108
33122.0,-3.2561,1.4461,10.386
33132.0,-2.648,1.8387,9.6869
33142.0,-2.0877,2.2051,9.1315
33152.0,-1.8675,2.4397,9.0716
33162.0,-2.0039,2.7318,8.9016
33172.0,-2.5762,2.7653,9.3685
33182.0,-3.4237,2.5618,10.2927
33192.0,-4.4748,2.2769,11.3533
33202.0,-4.9009,2.7485,11.3629
33212.0,-4.6304,3.1149,10.7643
33222.0,-3.6727,3.1867,9.3565
33232.0,-2.7605,2.8994,8.3199
33242.0,-1.9752,2.7653,7.0485
33252.0,-1.5874,2.6384,6.4524
33262.0,-1.2833,2.5522,6.4093
33272.0,-1.4293,2.2769,6.5769
33282.0,-1.6855,2.2338,7.003
33292.0,-1.8603,2.4205,7.3717
33302.0,-2.1308,2.7078,7.9727
33312.0,-2.0973,2.6121,8.7149
33322.0,-1.8483,2.5714,8.8418
33332.0,-1.5131,2.5426,8.6742
33342.0,-1.1253,2.636,7.9918
33352.0,-1.2761,2.7869,7.8985
33362.0,-1.6185,2.964,8.5569
33372.0,-2.2625,3.1891,9.572
33382.0,-2.8515,3.1987,10.9918
33392.0,-3.1532,3.0789,11.9614
33402.0,-3.2537,2.7198,12.3637
33412.0,-3.2681,2.387,12.2703
33422.0,-3.2968,1.889,11.5616
33432.0,-3.2322,1.4724,10.9654
33442.0,-3.7326,0.9026,10.7404
33452.0,-4.3718,0.486,10.8433
33462.0,-4.5921,0.316,11.133
33472.0,-4.628,0.2131,11.4132
33482.0,-4.7573,0.0455,11.4874
33492.0,-4.9895,-0.2658,11.7962
33502.0,-5.9161,-0.4429,12.2799
33512.0,-6.5841,-0.5818,12.4953
33522.0,-6.9839,-0.6704,12.3014
33532.0,-6.9863,-0.8906,12.1434
33542.0,-6.1914,-0.9194,11.3581
33552.0,-5.1451,-1.142,10.659
33562.0,-3.8786,-1.2905,9.3494
33572.0,-3.0502,-1.4509,8.5114
33582.0,-2.6719,-1.5802,7.7883
33592.0,-2.7581,-1.4868,7.6998
33602.0,-2.7964,-1.1995,7.8841
33612.0,-2.7581,-0.8523,8.0972
33622.0,-2.7677,-0.6153,8.3199
33632.0,-2.6863,-0.51,8.3821
33642.0,-2.5426,-0.486,8.3989
33652.0,-2.4181,-0.3543,8.3989
33662.0,-2.4948,-0.0718,8.2384
33672.0,-2.7342,0.3017,8.5377
33682.0,-2.7246,0.7446,9.0142
33692.0,-2.4421,1.0942,9.3541
33702.0,-2.32,1.2402,9.3398
33712.0,-2.399,1.3767,9.2464
33722.0,-2.0351,1.3982,8.8202
33732.0,-2.0446,1.3288,8.7197
33742.0,-2.2553,1.2546,9.1411
33752.0,-2.8467,1.3072,10.6039
33762.0,-4.0223,1.2665,12.7372
33772.0,-4.8626,1.0942,14.3963
33782.0,-4.853,1.0032,15.0595
33792.0,-4.0677,0.9888,14.0085
33802.0,-2.9664,0.9697,11.9902
33812.0,-2.3655,1.2761,11.4156
33822.0,-2.1069,1.6472,10.4315
33832.0,-2.2841,2.0734,10.2615
33842.0,-2.6528,2.4469,10.2999
33852.0,-2.9137,2.9401,10.2687
33862.0,-2.8563,3.4165,10.2304
33872.0,-3.1316,3.3591,10.4076
33882.0,-3.8379,2.818,11.1642
33892.0,-3.9361,2.8946,10.6207
33902.0,-3.4884,2.7869,10.07
33912.0,-2.4756,2.5211,8.7556
33922.0,-1.7214,2.2003,8.1355
33932.0,-0.8452,2.0566,7.0749
33942.0,-0.656,2.0806,6.6439
33952.0,-0.7207,2.4924,6.6487
33962.0,-1.1636,2.7031,7.2018
33972.0,-1.3072,2.9161,7.3789
33982.0,-1.2905,3.1747,7.8769
33992.0,-1.3455,3.0813,8.5449
34002.0,-1.6017,2.9233,9.2823
34012.0,-1.8052,2.8563,9.833
34022.0,-2.2386,2.5546,10.2448
34032.0,-2.3918,2.3798,9.924
34042.0,-2.296,2.411,9.9144
34052.0,-2.1979,2.2936,9.505
34062.0,-2.387,2.2865,9.8162
34072.0,-2.8347,2.3296,10.4746
34082.0,-3.3399,2.3918,11.0828
34092.0,-3.7685,2.6097,11.9638
34102.0,-4.0893,2.3224,13.0292
34112.0,-4.5203,2.1787,13.8241
34122.0,-4.8961,1.8387,14.2096
34132.0,-4.7285,1.5083,13.5033
34142.0,-4.3646,1.1875,12.9359
34152.0,-3.4285,1.166,11.5927
34162.0,-2.5426,1.1109,10.5584
34172.0,-2.1859,0.8763,9.8138
34182.0,-2.7078,0.5195,9.7013
34192.0,-4.0989,0.5291,10.173
34202.0,-5.4277,0.4381,10.4722
34212.0,-5.9089,0.6464,10.5297
34222.0,-5.4923,0.6704,10.2568
34232.0,-5.2074,0.431,10.501
34242.0,-4.1946,0.2729,9.8689
34252.0,-3.4165,0.1437,9.3685
34262.0,-2.3798,0.0048,8.1738
34272.0,-1.3455,-0.103,7.343
34282.0,-0.3735,-0.2562,6.5194
34292.0,0.1556,-0.2131,5.703
34302.0,0.2801,-0.1365,5.6168
34312.0,-0.0766,-0.0096,6.1986
34322.0,-1.1037,-0.1413,7.2856
34332.0,-1.6448,-0.0096,8.193
34342.0,-2.1931,0.1604,8.9112
34352.0,-2.8276,0.2729,9.8114
34362.0,-3.3016,0.249,10.3214
34372.0,-2.7988,0.1676,9.4499
34382.0,-2.4756,0.1556,8.8035
34392.0,-2.1859,-0.0072,7.8626
34402.0,-2.296,-0.4214,7.9703
34412.0,-2.6097,-0.6225,8.5832
34422.0,-3.45,-0.8691,10.3094
34432.0,-4.3742,-0.9074,12.1697
34442.0,-5.0159,-0.5842,13.7068
34452.0,-5.1116,-0.1772,14.0803
34462.0,-4.3503,0.3903,13.4674
34472.0,-3.6272,0.6177,12.2392
34482.0,-3.122,0.6393,11.4634
34492.0,-2.7701,0.68,10.1466
34502.0,-2.5881,0.7254,10.2113
34512.0,-2.8515,0.6297,10.6853
34522.0,-3.45,0.6488,11.2049
34532.0,-4.4963,0.9242,11.5281
34542.0,-5.1212,1.3048,11.5185
34552.0,-5.0135,1.7502,11.4156
34562.0,-4.4843,2.0375,11.5616
34572.0,-3.9935,1.8172,11.7005
34582.0,-3.2729,1.9058,11.1833
34592.0,-2.4708,2.1763,10.0772
34602.0,-2.1021,2.0949,8.7508
34612.0,-1.6951,1.9393,7.3023
34622.0,-1.0534,1.9393,6.3614
34632.0,-0.4525,2.1021,5.8131
34642.0,-0.5315,2.1045,6.3063
34652.0,-1.1636,2.0303,7.3478
34662.0,-1.64,1.8986,8.5617
34672.0,-1.9752,1.7573,9.2464
34682.0,-2.0686,1.8962,9.6989
34692.0,-2.1955,2.138,9.0956
34702.0,-2.1955,2.2434,8.8633
34712.0,-2.1189,2.2266,8.1187
34722.0,-1.6999,2.308,8.023
34732.0,-1.5012,2.4301,7.7213
34742.0,-1.494,2.5642,7.9392
34752.0,-1.7621,2.7557,8.0445
34762.0,-2.7892,2.6887,9.3374
34772.0,-3.984,2.8012,10.2783
34782.0,-5.0805,3.1316,11.6789
34792.0,-5.442,3.4716,12.651
34802.0,-4.9344,3.5793,12.9478
34812.0,-3.7781,3.4285,12.062
34822.0,-2.9401,2.7845,10.5991
34832.0,-2.5642,1.8435,8.6119
34842.0,-3.2825,1.3024,8.406
34852.0,-4.0247,0.9649,8.4467
34862.0,-5.1044,0.8116,9.7181
34872.0,-6.0789,0.668,10.6853
34882.0,-7.0222,0.5363,11.7579
34892.0,-7.9272,0.6632,12.0548
34902.0,-8.2983,0.7733,12.0428
34912.0,-7.999,0.8284,12.2416
34922.0,-7.252,0.4597,11.8705
34932.0,-5.8466,0.3304,10.8601
34942.0,-4.3144,0.2777,9.2871
34952.0,-3.0478,0.2466,7.6758
34962.0,-2.2386,0.2274,6.5027
34972.0,-2.2003,0.3855,6.0286
34982.0,-2.6049,0.565,6.5457
34992.0,-3.2848,0.6632,7.5441
35002.0,-3.6081,0.7781,8.7197
35012.0,-3.6536,0.6081,9.5026
35022.0,-3.3543,0.4932,9.8928
35032.0,-3.1388,0.3807,9.4786
35042.0,-2.988,0.249,8.5234
35052.0,-2.7797,0.1604,7.5154
35062.0,-2.7246,-0.1724,6.8857
35072.0,-2.6935,-0.3352,6.4691
35082.0,-2.5786,-0.3543,6.7086
35092.0,-2.7581,0.0144,7.2377
35102.0,-2.9281,0.2849,8.1259
35112.0,-3.237,0.3974,9.1387
35122.0,-3.4141,0.5315,10.0269
35132.0,-4.051,0.2083,11.2647
35142.0,-4.8985,0.0431,12.1242
35152.0,-5.4779,-0.2059,12.4115
35162.0,-5.4133,-0.3591,11.576
35172.0,-4.9752,-0.17,10.4124
35182.0,-4.7836,0.1173,9.2536
35192.0,-4.9871,0.4884,8.77
35202.0,-5.4133,0.6393,8.9854
35212.0,-5.5306,0.7494,9.5816
35222.0,-5.5234,1.2043,9.7707
35232.0,-5.3774,1.7142,9.5074
35242.0,-5.2577,1.9968,9.8354
35252.0,-5.1164,1.7597,9.7923
35262.0,-4.7597,1.5562,9.517
35272.0,-4.2641,1.3647,9.0429
35282.0,-4.0534,1.4413,8.7364
35292.0,-3.7876,1.494,8.102
35302.0,-3.4596,1.6879,7.8506
35312.0,-3.2585,1.7933,7.6998
35322.0,-3.4069,1.5945,7.8841
35332.0,-3.4285,1.5419,8.2528
35342.0,-3.4309,1.6376,8.3917
35352.0,-3.3471,1.6879,8.7436
35362.0,-3.4884,1.6688,9.1889
35372.0,-3.4572,1.6185,9.4212
35382.0,-3.3567,1.7286,9.0094
35392.0,-2.9018,1.9561,8.3606
35402.0,-2.5833,2.0518,7.9152
35412.0,-2.3487,2.0279,7.6184
35422.0,-2.3248,2.1835,7.6184
35432.0,-2.8778,2.3559,7.9344
35442.0,-3.8283,2.2769,8.4946
35452.0,-4.5538,2.4014,9.4595
35462.0,-4.6639,2.7078,10.3956
35472.0,-4.549,2.5211,11.2264
35482.0,-4.1635,2.3798,11.5305
35492.0,-3.9313,2.2817,10.8936
35502.0,-4.2186,1.8435,10.1083
35512.0,-4.525,1.6616,9.3996
35522.0,-4.5011,1.6664,8.576
35532.0,-4.5394,1.6616,8.1642
35542.0,-4.9225,1.4509,8.43
35552.0,-5.636,1.2737,9.3158
35562.0,-6.1555,1.1037,9.912
35572.0,-6.5936,0.9984,10.7141
35582.0,-7.2089,0.6871,11.5736
35592.0,-7.9272,0.1628,12.3972
35602.0,-8.0302,-0.1197,12.5241
35612.0,-7.5633,-0.5004,12.1506
35622.0,-6.4907,-0.5028,11.2049
35632.0,-5.0254,-0.2394,9.8162
35642.0,-3.948,-0.2035,8.1451
35652.0,-3.3471,-0.3208,7.3717
35662.0,-2.806,-0.2298,6.8546
35672.0,-2.7198,-0.3974,6.9432
35682.0,-3.0358,-0.6488,7.7357
35692.0,-3.0502,-0.6943,8.3989
35702.0,-3.316,-0.6273,8.9112
35712.0,-3.2489,-0.4477,9.0333
35722.0,-3.055,-0.3184,9.0573
35732.0,-2.5953,-0.1724,8.7412
35742.0,-2.5402,-0.0431,8.2456
35752.0,-2.7078,-0.1197,7.8626
35762.0,-3.0622,-0.2634,8.0948
35772.0,-3.4309,-0.3256,8.4731
35782.0,-3.8714,-0.2825,9.5768
35792.0,-4.1372,-0.0024,10.5728
35802.0,-4.2545,0.1173,11.6143
35812.0,-4.3215,-0.0694,12.2032
35822.0,-4.3622,-0.2155,12.1578
35832.0,-4.3958,-0.4453,11.5736
35842.0,-4.1084,-0.5459,10.7667
35852.0,-3.9337,-0.5339,10.0533
35862.0,-4.0462,-0.577,10.1897
35872.0,-4.3359,-0.6345,10.1011
35882.0,-5.0135,-0.6273,10.2208
35892.0,-5.4827,-0.3376,10.3837
35902.0,-5.2816,0.4381,9.754
35912.0,-4.8363,1.1756,9.7923
35922.0,-4.9368,1.3886,10.2496
35932.0,-4.9177,1.4676,10.5105
35942.0,-4.5825,1.822,10.3645
35952.0,-4.4125,1.8938,9.8833
35962.0,-3.9576,1.7286,8.9304
35972.0,-3.1364,1.834,7.9847
35982.0,-2.3296,2.0782,6.9863
35992.0,-1.7765,2.2697,6.529
36002.0,-1.8507,2.4157,6.8354
36012.0,-2.0111,2.4612,7.7764
36022.0,-2.0446,2.5714,8.5712
36032.0,-2.1739,2.5474,9.1889
36042.0,-2.3846,2.4349,9.4379
36052.0,-2.387,2.4517,8.9591
36062.0,-2.2482,2.5043,8.4491
36072.0,-2.0518,2.6695,7.9559
36082.0,-1.8603,2.9281,7.6088
36092.0,-1.7861,3.213,7.7428
36102.0,-2.0901,3.5027,8.1283
36112.0,-2.7845,3.6009,9.0046
36122.0,-3.5817,3.4429,9.7612
36132.0,-3.9193,3.2561,10.1538
36142.0,-3.9193,3.1005,10.3573
36152.0,-3.7613,2.7557,10.5393
36162.0,-3.8595,2.7653,10.0987
36172.0,-3.7302,2.7414,9.9503
36182.0,-3.6823,2.6217,9.4619
36192.0,-4.1587,2.4612,9.8402
36202.0,-4.4819,1.9992,10.3382
36212.0,-4.8267,1.5467,10.7188
36222.0,-5.2481,1.0965,11.224
36232.0,-5.9233,0.6656,11.4203
36242.0,-6.9576,0.4046,11.7412
36252.0,-7.8099,0.5483,12.1075
36262.0,-7.8697,0.5243,12.1458
36272.0,-7.1132,0.9481,12.1961
36282.0,-6.3207,0.9242,12.0692
36292.0,-5.4947,0.6536,11.2456
36302.0,-4.8722,0.4645,10.2783
36312.0,-4.1827,-0.0335,9.0573
36322.0,-3.5386,-0.5195,8.0541
36332.0,-3.0454,-0.6919,7.0677
36342.0,-2.7078,-0.7015,6.7828
36352.0,-2.6336,-0.7733,7.0102
36362.0,-2.7509,-0.589,7.3358
36372.0,-2.6336,-0.4429,7.4412
36382.0,-2.7845,-0.2969,7.8147
36392.0,-3.122,-0.3663,7.9464
36402.0,-3.2154,-0.3112,7.9344
36412.0,-3.0023,-0.3041,8.102
36422.0,-2.8323,-0.2825,8.406
36432.0,-2.6911,-0.0838,8.5329
36442.0,-2.6025,0.0335,8.7652
36452.0,-2.8228,0.2729,9.2009
36462.0,-3.2106,0.5243,9.5624
36472.0,-3.4764,0.747,9.6295
36482.0,-3.8164,0.9673,10.1131
36492.0,-4.2545,0.8332,10.6614
36502.0,-4.7022,0.7207,11.0708
36512.0,-4.6615,0.6943,11.2336
36522.0,-4.5035,0.6919,11.224
36532.0,-4.4197,0.9649,11.3892
36542.0,-4.6136,1.1109,11.7172
36552.0,-5.0901,1.2163,12.0548
36562.0,-5.6934,0.9625,12.3684
36572.0,-5.8969,0.996,12.4355
36582.0,-6.1627,1.1396,12.3565
36592.0,-6.0621,0.996,12.2631
36602.0,-5.9664,0.7374,11.9159
36612.0,-6.0214,0.5794,11.4994
36622.0,-5.7724,0.5483,11.0325
36632.0,-5.4348,0.2131,10.6614
36642.0,-4.3551,0.4477,9.6031
36652.0,-3.4524,0.2466,8.4276
36662.0,-2.7414,0.2203,7.1204
36672.0,-2.1668,0.3496,6.4069
36682.0,-2.1213,0.3735,6.1507
36692.0,-2.545,0.5602,6.5841
36702.0,-2.8084,0.7709,6.9336
36712.0,-3.3543,1.0439,7.9128
36722.0,-3.5961,1.3001,8.4348
36732.0,-3.4429,1.2186,8.1379
36742.0,-3.1891,1.1492,8.0134
36752.0,-2.9281,1.1468,6.9791
36762.0,-2.6815,1.2426,6.7325
36772.0,-2.545,1.3168,6.6774
36782.0,-2.5307,1.3719,6.9384
36792.0,-2.7438,1.3024,7.5561
36802.0,-3.4668,1.3862,8.3222
36812.0,-4.5394,1.336,9.3254
36822.0,-4.9799,1.3743,9.9838
36832.0,-4.9512,1.6041,10.1754
36842.0,-4.8554,1.7286,10.4986
36852.0,-4.6687,1.6855,10.4818
36862.0,-4.2353,1.7717,10.1945
36872.0,-3.5841,1.9369,9.9814
36882.0,-3.0287,2.3176,9.8067
36892.0,-2.8084,2.5474,10.1466
36902.0,-2.8922,2.8611,10.3884
36912.0,-3.3016,3.1795,11.1809
36922.0,-3.5338,3.5602,11.7819
36932.0,-4.0438,3.5745,12.5432
36942.0,-4.3958,3.4069,12.6797
36952.0,-4.3527,3.0526,12.1985
36962.0,-4.4843,2.6001,11.8752
36972.0,-4.4436,2.5235,11.3126
36982.0,-4.3407,2.8347,11.2288
36992.0,-4.5083,3.1196,11.1977
37002.0,-5.2098,2.7677,12.3828
37012.0,-5.77,2.2936,12.7036
37022.0,-5.6455,2.0518,12.1434
37032.0,-4.8195,1.5371,10.738
37042.0,-3.6631,1.1253,8.8107
37052.0,-2.3463,0.7398,6.6056
37062.0,-1.2546,0.4094,4.7525
37072.0,-0.7685,0.2753,3.8307
37082.0,-1.1612,0.1245,3.9002
37092.0,-2.4181,0.012,5.6982
37102.0,-3.6296,-0.0575,7.2257
37112.0,-4.2066,0.1413,8.7676
37122.0,-4.3527,0.3711,9.0166
37132.0,-4.0079,0.4621,9.0884
37142.0,-3.9528,0.2514,9.1578
37152.0,-3.7062,0.158,8.5258
37162.0,-3.0311,0.2658,7.774
37172.0,-2.229,0.4334,7.015
37182.0,-1.8914,0.7901,6.7804
37192.0,-2.5139,0.9409,7.671
37202.0,-4.0917,0.7614,9.8617
37212.0,-5.1499,0.4381,11.4179
37222.0,-5.272,0.249,12.5336
37232.0,-4.8387,0.3615,12.8377
37242.0,-4.2976,0.7494,12.2703
37252.0,-3.711,0.8643,10.7332
37262.0,-3.2633,0.9888,9.821
37272.0,-2.5043,1.2929,9.074
37282.0,-2.2505,1.3791,8.8394
37292.0,-2.5905,1.3934,9.1123
37302.0,-3.2202,1.2474,9.9
37312.0,-4.1061,1.2354,10.9391
37322.0,-5.1116,1.4269,12.1578
37332.0,-5.8227,1.4533,13.7595
37342.0,-5.6288,1.7813,13.0292
37352.0,-5.3702,1.8148,12.9694
37362.0,-4.7285,1.798,12.0333
37372.0,-3.948,1.7334,10.817
37382.0,-3.1029,1.5706,9.7612
37392.0,-2.7318,1.4126,9.2009
37402.0,-2.545,1.2857,8.5449
37412.0,-2.5642,1.3479,8.0421
37422.0,-2.4948,1.3719,7.5417
37432.0,-2.4828,1.5203,7.2449
37442.0,-2.6552,1.4485,7.2616
37452.0,-2.8706,1.5778,7.6495
37462.0,-3.3567,1.652,8.1523
37472.0,-3.5554,1.7142,8.5736
37482.0,-3.3758,1.8794,8.497
37492.0,-3.0071,1.8387,8.2576
37502.0,-2.8443,1.8364,7.999
37512.0,-2.9975,1.7406,8.0565
37522.0,-2.9928,1.7765,8.4563
37532.0,-3.0646,1.901,8.9615
37542.0,-3.5123,2.1069,9.3565
37552.0,-4.0438,2.0159,9.9766
