timestamp_ms,ax,ay,az
8962.0,-3.3591,0.735,9.6271
8972.0,-3.2753,0.7302,9.7396
8982.0,-3.1987,0.668,9.6678
8992.0,-3.2034,0.8068,9.4332
9002.0,-3.2178,0.7135,9.5265
9012.0,-3.2322,0.7829,9.3925
9022.0,-3.1771,0.8356,9.4739
9032.0,-3.2202,0.8045,9.4068
9042.0,-3.2417,0.7374,9.5457
9052.0,-3.3232,0.7566,9.5672
9062.0,-3.4596,0.7087,9.6606
9072.0,-3.4069,0.7063,9.6798
9082.0,-3.4046,0.6393,9.6319
9092.0,-3.3279,0.7254,9.5481
9102.0,-3.4093,0.759,9.6079
9112.0,-3.3375,0.7709,9.6055
9122.0,-3.3758,0.7374,9.5193
9132.0,-3.3878,0.814,9.675
9142.0,-3.4477,0.7422,9.6774
9152.0,-3.4069,0.7542,9.73
9162.0,-3.4069,0.6967,9.651
9172.0,-3.2561,0.7398,9.56
9182.0,-3.2801,0.6464,9.5433
9192.0,-3.3471,0.644,9.5672
9202.0,-3.3926,0.68,9.6319
9212.0,-3.4309,0.6656,9.7588
9222.0,-3.462,0.7542,9.7396
9232.0,-3.4405,0.747,9.5768
9242.0,-3.2633,0.6991,9.5409
9252.0,-3.3279,0.6608,9.6223
9262.0,-3.3615,0.7494,9.6893
9272.0,-3.4907,0.7661,9.7564
9282.0,-3.4405,0.7781,9.8186
9292.0,-3.5003,0.8404,9.8689
9302.0,-3.4069,0.7709,9.7588
9312.0,-3.3782,0.7278,9.6223
9322.0,-3.2992,0.7542,9.6486
9332.0,-3.2777,0.7925,9.5672
9342.0,-3.2896,0.7733,9.5624
9352.0,-3.3447,0.7566,9.6223
9362.0,-3.3639,0.6823,9.6822
9372.0,-3.4069,0.6991,9.6367
9382.0,-3.3926,0.7183,9.6869
9392.0,-3.383,0.6608,9.7779
9402.0,-3.4477,0.7183,9.6079
9412.0,-3.4357,0.7374,9.6343
9422.0,-3.4022,0.8045,9.5864
9432.0,-3.4884,0.7518,9.5361
9442.0,-3.4548,0.7398,9.4643
9452.0,-3.5123,0.8116,9.5146
9462.0,-3.5578,0.7997,9.6319
9472.0,-3.5267,0.7733,9.6055
9482.0,-3.4692,0.7901,9.4954
9492.0,-3.4524,0.7518,9.5744
9502.0,-3.3974,0.7781,9.4763
9512.0,-3.395,0.723,9.5672
9522.0,-3.3926,0.8667,9.6414
9532.0,-3.4548,0.7709,9.7276
9542.0,-3.5123,0.8116,9.7636
9552.0,-3.5674,0.8475,9.8067
9562.0,-3.5314,0.8954,9.8545
9572.0,-3.4548,0.8452,9.6774
9582.0,-3.3854,0.7494,9.5696
9592.0,-3.3662,0.8212,9.6127
9602.0,-3.4453,0.8906,9.6103
9612.0,-3.4405,0.9625,9.6702
9622.0,-3.4572,0.8715,9.6247
9632.0,-3.4189,0.8212,9.6582
9642.0,-3.3591,0.7638,9.651
9652.0,-3.4189,0.7422,9.6247
9662.0,-3.4333,0.7374,9.6558
9672.0,-3.4716,0.759,9.6654
9682.0,-3.4764,0.8068,9.7564
9692.0,-3.4261,0.7877,9.663
9702.0,-3.4237,0.8021,9.5409
9712.0,-3.4022,0.7709,9.651
9722.0,-3.3878,0.8068,9.5553
9732.0,-3.3662,0.7901,9.6774
9742.0,-3.3615,0.838,9.5553
9752.0,-3.371,0.8595,9.4715
9762.0,-3.4022,0.7542,9.5577
9772.0,-3.4165,0.7973,9.5816
9782.0,-3.5243,0.8475,9.8402
9792.0,-3.5051,0.8859,9.6558
9802.0,-3.5362,0.8763,9.7755
9812.0,-3.4812,0.7398,9.7516
9822.0,-3.4524,0.7949,9.754
9832.0,-3.316,0.826,9.6438
9842.0,-3.3016,0.8571,9.5217
9852.0,-3.3543,0.8571,9.4475
9862.0,-3.3974,0.7757,9.3805
9872.0,-3.3615,0.6728,9.6534
9882.0,-3.4237,0.6919,9.7372
9892.0,-3.3854,0.8882,9.6917
9902.0,-3.3926,0.6967,9.6965
9912.0,-3.4453,0.8404,9.7324
9922.0,-3.486,0.7805,9.5481
9932.0,-3.3902,0.7422,9.5936
9942.0,-3.4453,0.759,9.5648
9952.0,-3.3686,0.8452,9.6774
9962.0,-3.3543,0.8236,9.505
9972.0,-3.2753,0.8068,9.493
9982.0,-3.4117,0.8763,9.3972
9992.0,-3.3734,0.8404,9.4044
10002.0,-3.3782,0.7829,9.6031
10012.0,-3.4453,0.7877,9.7205
10022.0,-3.3974,0.8021,9.6223
10032.0,-3.4955,0.7685,9.5816
10042.0,-3.371,0.9098,9.4595
10052.0,-3.2633,0.8164,9.3661
10062.0,-3.3184,0.7733,9.3781
10072.0,-3.2058,0.8164,9.3518
10082.0,-3.2537,0.7757,9.596
10092.0,-3.2537,0.7183,9.6774
10102.0,-3.3351,0.8404,9.5744
10112.0,-3.3567,0.7877,9.505
10122.0,-3.3136,0.7877,9.4379
10132.0,-3.2633,0.7614,9.4595
10142.0,-3.3112,0.7566,9.426
10152.0,-3.3303,0.8068,9.5265
10162.0,-3.3591,0.814,9.6654
10172.0,-3.3974,0.8021,9.6295
10182.0,-3.316,0.7638,9.6079
10192.0,-3.3232,0.6967,9.6223
10202.0,-3.3662,0.6752,9.6414
10212.0,-3.3471,0.7278,9.7037
10222.0,-3.395,0.8045,9.5912
10232.0,-3.3878,0.8021,9.6199
10242.0,-3.3591,0.7781,9.6774
10252.0,-3.4429,0.7254,9.6247
10262.0,-3.4477,0.7111,9.6989
10272.0,-3.4333,0.6967,9.6438
10282.0,-3.462,0.7015,9.8019
10292.0,-3.4477,0.7278,9.6391
10302.0,-3.4405,0.7135,9.6702
10312.0,-3.3758,0.7374,9.6726
10322.0,-3.4261,0.7661,9.5768
10332.0,-3.3902,0.759,9.584
10342.0,-3.3567,0.7638,9.6654
10352.0,-3.3495,0.7566,9.6654
10362.0,-3.4405,0.7709,9.5816
10372.0,-3.4812,0.6153,9.6558
10382.0,-3.3902,0.7015,9.8019
10392.0,-3.3758,0.6273,9.6941
10402.0,-3.3303,0.6919,9.7109
10412.0,-3.3615,0.7398,9.6127
10422.0,-3.3184,0.7638,9.4834
10432.0,-3.3303,0.7398,9.493
10442.0,-3.2298,0.7661,9.481
10452.0,-3.2058,0.7087,9.56
10462.0,-3.2537,0.7039,9.5529
10472.0,-3.3255,0.6991,9.5074
10482.0,-3.3974,0.7326,9.5074
10492.0,-3.3543,0.8164,9.6271
10502.0,-3.4309,0.6991,9.7157
10512.0,-3.3974,0.759,9.5792
10522.0,-3.3351,0.7781,9.5433
10532.0,-3.3136,0.6943,9.5361
10542.0,-3.2681,0.7111,9.3996
10552.0,-3.2944,0.7183,9.4834
10562.0,-3.316,0.735,9.4379
10572.0,-3.3375,0.7183,9.4858
10582.0,-3.4261,0.6871,9.651
10592.0,-3.3591,0.6991,9.596
10602.0,-3.4093,0.7374,9.6582
10612.0,-3.4692,0.6512,9.5696
10622.0,-3.371,0.7733,9.5984
10632.0,-3.3303,0.7374,9.5696
10642.0,-3.4213,0.7326,9.5122
10652.0,-3.3806,0.7159,9.4427
10662.0,-3.3734,0.6919,9.4834
10672.0,-3.3567,0.7207,9.56
10682.0,-3.3591,0.7039,9.572
10692.0,-3.4309,0.759,9.505
10702.0,-3.4237,0.7614,9.5241
10712.0,-3.4165,0.7542,9.5792
10722.0,-3.3782,0.7542,9.6007
10732.0,-3.4165,0.7901,9.6175
10742.0,-3.4285,0.8236,9.6606
10752.0,-3.3591,0.7685,9.6367
10762.0,-3.3806,0.8475,9.5409
10772.0,-3.2992,0.8308,9.6534
10782.0,-3.2848,0.8835,9.5457
10792.0,-3.2825,0.8595,9.4667
10802.0,-3.3447,0.8547,9.493
10812.0,-3.3662,0.8212,9.4739
10822.0,-3.4261,0.8643,9.5864
10832.0,-3.4261,0.8667,9.6295
10842.0,-3.4764,0.9385,9.7181
10852.0,-3.4907,0.9002,9.7229
10862.0,-3.474,0.9673,9.7229
10872.0,-3.4812,1.0127,9.7516
10882.0,-3.4788,1.0151,9.6893
10892.0,-3.4453,1.0511,9.6438
10902.0,-3.3806,0.9529,9.5768
10912.0,-3.3639,0.8835,9.6175
10922.0,-3.3662,0.8835,9.5912
10932.0,-3.4141,0.8595,9.6079
10942.0,-3.4405,0.8715,9.5409
10952.0,-3.4189,0.9098,9.5984
10962.0,-3.4117,0.8452,9.6917
10972.0,-3.4931,0.8452,9.6391
10982.0,-3.4644,0.8643,9.5624
10992.0,-3.3998,0.7398,9.6319
11002.0,-3.4046,0.759,9.5313
11012.0,-3.3782,0.8164,9.5026
11022.0,-3.4237,0.6752,9.5984
11032.0,-3.3279,0.7302,9.6534
11042.0,-3.3495,0.6608,9.5505
11052.0,-3.304,0.5914,9.5026
11062.0,-3.3303,0.6225,9.4212
11072.0,-3.3567,0.6081,9.5193
11082.0,-3.383,0.6512,9.505
11092.0,-3.4429,0.6201,9.4834
11102.0,-3.3471,0.5602,9.481
11112.0,-3.3591,0.5722,9.4667
11122.0,-3.383,0.4908,9.5457
11132.0,-3.3495,0.5363,9.4882
11142.0,-3.395,0.565,9.5624
11152.0,-3.3567,0.6369,9.5696
11162.0,-3.3447,0.6345,9.4427
11172.0,-3.316,0.565,9.4643
11182.0,-3.3543,0.5578,9.4212
11192.0,-3.3327,0.5411,9.5505
11202.0,-3.2872,0.4884,9.5529
11212.0,-3.3064,0.5363,9.6223
11222.0,-3.371,0.5148,9.6798
11232.0,-3.3423,0.5267,9.7324
11242.0,-3.3375,0.5674,9.6989
11252.0,-3.371,0.5746,9.5672
11262.0,-3.2896,0.5794,9.6534
11272.0,-3.2968,0.5291,9.6367
11282.0,-3.4189,0.5148,9.8186
11292.0,-3.3926,0.5602,9.7707
11302.0,-3.4524,0.5171,9.6534
11312.0,-3.486,0.5291,9.651
11322.0,-3.4309,0.5986,9.6151
11332.0,-3.462,0.5674,9.6917
11342.0,-3.4141,0.5507,9.6295
11352.0,-3.4357,0.5339,9.675
11362.0,-3.4022,0.5626,9.8043
11372.0,-3.4596,0.5866,9.6726
11382.0,-3.3064,0.5842,9.7875
11392.0,-3.2872,0.5722,9.6438
11402.0,-3.2537,0.6009,9.6391
11412.0,-3.2801,0.5986,9.5289
11422.0,-3.3112,0.6464,9.6438
11432.0,-3.2681,0.644,9.7252
11442.0,-3.2801,0.6297,9.7444
11452.0,-3.2848,0.7111,9.7755
11462.0,-3.2561,0.7326,9.5864
11472.0,-3.2322,0.7949,9.4523
11482.0,-3.1867,0.6728,9.3398
11492.0,-3.0861,0.7757,9.402
11502.0,-3.1891,0.7159,9.4355
11512.0,-3.2968,0.7207,9.7037
11522.0,-3.2657,0.7015,9.6893
11532.0,-3.2417,0.6752,9.7899
11542.0,-3.2082,0.7207,9.6845
11552.0,-3.0526,0.7422,9.7181
11562.0,-3.0861,0.6871,9.6151
11572.0,-3.1149,0.7446,9.4643
11582.0,-3.1532,0.7494,9.4643
11592.0,-3.1939,0.8092,9.5744
11602.0,-3.0502,0.8835,9.481
11612.0,-3.1005,0.814,9.481
11622.0,-3.0957,0.6584,9.4882
11632.0,-3.122,0.6297,9.6079
11642.0,-3.1651,0.6512,9.7612
11652.0,-3.1939,0.7063,9.6223
11662.0,-3.0861,0.7638,9.6031
11672.0,-3.0502,0.6967,9.5457
11682.0,-2.9999,0.7015,9.7037
11692.0,-2.8443,0.6345,9.7707
11702.0,-2.8826,0.6728,9.6606
11712.0,-2.9209,0.6967,9.5553
11722.0,-2.9712,0.7111,9.5744
11732.0,-3.0382,0.6919,9.5768
11742.0,-2.9832,0.6632,9.7157
11752.0,-3.1077,0.7015,9.7707
11762.0,-3.1388,0.7278,9.979
11772.0,-3.1388,0.68,9.9192
11782.0,-3.0143,0.7278,9.9742
11792.0,-2.9592,0.7757,9.8952
11802.0,-2.9616,0.7183,9.8282
11812.0,-2.988,0.747,9.9264
11822.0,-2.9999,0.735,9.8282
11832.0,-3.0478,0.7709,9.8881
11842.0,-3.0502,0.7853,9.9096
11852.0,-3.1532,0.8212,10.0604
11862.0,-3.2681,0.838,10.1586
11872.0,-3.1651,0.9984,10.0269
11882.0,-3.213,0.9505,10.1155
11892.0,-3.1316,0.9457,9.8713
11902.0,-2.9664,0.9505,9.8354
11912.0,-3.1125,1.1995,11.0085
11922.0,-3.0454,0.9888,9.7923
11932.0,-3.1771,1.0223,9.9838
11942.0,-3.1939,0.9673,9.9742
11952.0,-3.1915,0.8404,9.991
11962.0,-3.2322,0.9098,9.9647
11972.0,-3.1508,0.8906,9.9527
11982.0,-3.1101,0.9194,9.7444
11992.0,-3.0813,0.8595,9.5984
12002.0,-3.0358,0.8954,9.4715
12012.0,-3.1101,0.9242,9.4284
12022.0,-3.1149,0.8619,9.5433
12032.0,-3.0742,0.7638,9.5624
12042.0,-3.043,0.7183,9.6343
12052.0,-3.1244,0.6512,9.6007
12062.0,-2.9353,0.668,9.596
12072.0,-3.0742,0.5626,9.5624
12082.0,-3.1771,0.6584,9.6486
12092.0,-3.0981,0.5746,9.6103
12102.0,-3.0646,0.7494,9.5409
12112.0,-3.0789,0.6967,9.4427
12122.0,-3.0909,0.6249,9.3637
12132.0,-3.0454,0.4645,9.4786
12142.0,-3.1173,0.395,9.5553
12152.0,-3.1196,0.3543,9.8354
12162.0,-3.1244,0.4142,9.7229
12172.0,-3.0742,0.5411,9.7229
12182.0,-3.134,0.5531,9.8737
12192.0,-3.1173,0.4956,9.8641
12202.0,-3.0789,0.6656,9.7803
12212.0,-3.1747,0.5914,9.7252
12222.0,-3.0957,0.4908,9.809
12232.0,-3.134,0.4788,9.9
12242.0,-3.1939,0.4118,9.9766
12252.0,-3.1627,0.4741,10.0389
12262.0,-3.3232,0.3998,10.1825
12272.0,-3.3112,0.395,10.1586
12282.0,-3.3591,0.3136,10.0413
12292.0,-3.4644,0.2562,10.0413
12302.0,-3.5434,0.3065,10.1131
12312.0,-3.6679,0.3112,10.0413
12322.0,-3.6799,0.4429,9.9982
12332.0,-3.4884,0.5028,9.8904
12342.0,-3.3854,0.4046,9.7061
12352.0,-3.2274,0.4669,9.6534
12362.0,-3.1412,0.34,9.6869
12372.0,-3.1603,0.4381,9.7181
12382.0,-3.1771,0.4166,9.8019
12392.0,-3.2801,0.4501,9.8952
12402.0,-3.2178,0.4621,9.9048
12412.0,-3.122,0.395,9.8114
12422.0,-3.0646,0.3974,9.6151
12432.0,-2.9975,0.3926,9.6917
12442.0,-3.043,0.4166,9.6414
12452.0,-3.1101,0.4788,9.7372
12462.0,-3.2106,0.5315,9.8497
12472.0,-3.2561,0.5674,9.8426
12482.0,-3.146,0.5986,9.7133
12492.0,-3.0167,0.5866,9.6151
12502.0,-2.9856,0.6584,9.5385
12512.0,-3.0335,0.5938,9.6319
12522.0,-2.9904,0.5363,9.5816
12532.0,-2.976,0.5555,9.5936
12542.0,-2.9521,0.4908,9.5002
12552.0,-2.9688,0.51,9.5768
12562.0,-3.0526,0.5267,9.6822
12572.0,-3.1795,0.5052,9.7396
12582.0,-2.9377,0.5459,9.6223
12592.0,-2.9161,0.5076,9.6295
12602.0,-2.7845,0.5387,9.5289
12612.0,-2.7629,0.5363,9.2392
12622.0,-2.7916,0.5171,9.1626
12632.0,-2.7653,0.4238,9.0644
12642.0,-2.8347,0.419,9.1866
12652.0,-2.8108,0.4884,9.3087
12662.0,-2.8922,0.395,9.596
12672.0,-2.9951,0.4741,9.6989
12682.0,-3.0694,0.4621,9.7827
12692.0,-3.0335,0.5219,9.7851
12702.0,-2.9736,0.51,9.7372
12712.0,-3.0765,0.4884,9.5624
12722.0,-3.0047,0.4956,9.5122
12732.0,-2.9808,0.5124,9.4691
12742.0,-2.9473,0.4884,9.3278
12752.0,-2.9736,0.5052,9.5792
12762.0,-3.0622,0.5195,9.7324
12772.0,-3.1699,0.431,10.0102
12782.0,-3.1388,0.4166,10.0509
12792.0,-3.1675,0.3208,10.094
12802.0,-3.158,0.3472,9.9335
12812.0,-3.1316,0.3735,9.8689
12822.0,-3.0837,0.3735,9.5146
12832.0,-3.2753,0.4046,9.7707
12842.0,-3.4189,0.4453,9.8593
12852.0,-3.3734,0.4573,10.0221
12862.0,-3.3615,0.3376,10.1011
12872.0,-3.316,0.3496,10.1682
12882.0,-3.3495,0.2921,9.9958
12892.0,-3.4093,0.2729,10.0509
12902.0,-3.5003,0.2658,9.8569
12912.0,-3.4165,0.2801,9.754
12922.0,-3.4381,0.3855,9.7252
12932.0,-3.3758,0.4118,9.5864
12942.0,-3.3998,0.3112,9.73
12952.0,-3.4189,0.3089,9.7276
12962.0,-3.3591,0.3807,9.8617
12972.0,-3.4141,0.4286,10.0509
12982.0,-3.2944,0.3903,9.9742
12992.0,-3.2585,0.2825,9.8689
13002.0,-3.1364,0.2059,9.6223
13012.0,-3.055,0.2179,9.4595
13022.0,-3.0071,0.3424,9.1674
13032.0,-2.8635,0.3543,9.0405
13042.0,-2.8826,0.3424,9.2392
13052.0,-2.9521,0.316,9.4284
13062.0,-3.0287,0.3136,9.7707
13072.0,-3.1268,0.3232,10.0317
13082.0,-3.1173,0.395,9.9862
13092.0,-2.9664,0.3065,9.7085
13102.0,-2.9305,0.3136,9.3134
13112.0,-2.988,0.3687,8.9663
13122.0,-3.1532,0.4621,8.8705
13132.0,-3.1651,0.5459,8.9016
13142.0,-3.3447,0.5866,9.1602
13152.0,-3.3998,0.6033,9.6558
13162.0,-3.4931,0.4525,9.9359
13172.0,-3.5889,0.3543,10.2161
13182.0,-3.3926,0.3855,10.1586
13192.0,-3.2082,0.3208,9.9455
13202.0,-3.1747,0.2322,9.572
13212.0,-3.2058,0.2849,9.335
13222.0,-3.146,0.3328,9.414
13232.0,-3.2202,0.2107,9.3613
13242.0,-3.3136,0.1125,9.4667
13252.0,-3.3327,0.0646,9.7396
13262.0,-3.4477,-0.0527,9.924
13272.0,-3.565,-0.0287,10.0389
13282.0,-3.6224,0.0263,10.0916
13292.0,-3.6368,0.0886,9.9551
13302.0,-3.5338,0.1197,9.8019
13312.0,-3.2633,0.1724,9.5672
13322.0,-3.1987,0.1724,9.3709
13332.0,-3.1819,0.1101,9.2703
13342.0,-3.1412,0.1389,9.268
13352.0,-3.0981,0.0742,9.5193
13362.0,-3.1963,0.0431,9.6247
13372.0,-3.2681,0.1053,9.7444
13382.0,-3.3423,0.1269,9.9671
13392.0,-3.4429,0.1389,10.0796
13402.0,-3.5051,0.2705,10.003
13412.0,-3.5434,0.2418,9.9814
13422.0,-3.4285,0.2849,9.8952
13432.0,-3.3064,0.2274,9.7252
13442.0,-3.2106,0.3017,9.5648
13452.0,-3.1196,0.3232,9.5433
13462.0,-3.0358,0.3424,9.5026
13472.0,-3.1388,0.3472,9.5385
13482.0,-3.0861,0.395,9.6079
13492.0,-3.0885,0.3639,9.8737
13502.0,-3.134,0.4022,9.8545
13512.0,-3.1915,0.4022,9.7707
13522.0,-3.0885,0.5004,9.6869
13532.0,-3.1771,0.5195,9.8474
13542.0,-3.2753,0.5315,9.9048
13552.0,-3.3806,0.4956,9.9886
13562.0,-3.1819,0.5076,10.058
13572.0,-3.225,0.4334,9.9934
13582.0,-3.0526,0.4501,9.7995
13592.0,-2.9377,0.4788,9.663
13602.0,-2.8539,0.4477,9.6103
13612.0,-2.8491,0.4405,9.7636
13622.0,-2.7366,0.5626,9.8043
13632.0,-2.6001,0.5004,9.6582
13642.0,-2.6624,0.5411,9.7013
13652.0,-2.7916,0.431,9.6367
13662.0,-3.1029,0.4501,9.7276
13672.0,-3.1388,0.4549,9.6798
13682.0,-3.3495,0.498,10.0652
13692.0,-3.4524,0.5315,10.07
13702.0,-3.2657,0.5818,9.8138
13712.0,-3.0694,0.6321,9.6223
13722.0,-2.8611,0.644,9.3661
13732.0,-2.7342,0.5866,9.2488
13742.0,-2.7414,0.5818,9.2895
13752.0,-2.909,0.6105,9.3254
13762.0,-2.9736,0.5555,9.4092
13772.0,-3.0358,0.5148,9.5792
13782.0,-3.0622,0.4741,9.7157
13792.0,-3.2417,0.4453,9.7468
13802.0,-3.2825,0.4046,9.809
13812.0,-3.2657,0.3855,9.7683
13822.0,-3.2417,0.3472,9.7468
13832.0,-3.1005,0.3831,9.651
13842.0,-3.0694,0.2705,9.493
13852.0,-3.0143,0.1987,9.3374
13862.0,-3.0263,0.0814,9.2823
13872.0,-3.1125,0.1604,9.4882
13882.0,-3.1412,0.1532,9.5337
13892.0,-3.1292,0.2849,9.5553
13902.0,-3.1675,0.2801,9.6438
13912.0,-3.0981,0.2322,9.6295
13922.0,-3.122,0.1772,9.8737
13932.0,-3.1843,0.158,9.8282
13942.0,-3.2346,0.2155,9.8569
13952.0,-3.1699,0.2035,9.8881
13962.0,-3.1603,0.3519,9.663
13972.0,-3.1747,0.3017,9.6007
13982.0,-3.1747,0.3112,9.7779
13992.0,-3.213,0.3376,9.7205
14002.0,-3.158,0.3376,10.0269
14012.0,-3.1173,0.3998,9.8521
14022.0,-3.0023,0.2729,9.7636
14032.0,-2.8683,0.249,9.6606
14042.0,-2.8252,0.1556,9.663
14052.0,-2.9688,0.0814,9.5744
14062.0,-2.9904,0.1149,9.675
14072.0,-3.0789,0.1676,9.7324
14082.0,-3.1077,0.1867,9.7803
14092.0,-3.0215,0.2011,9.7181
14102.0,-3.0335,0.2179,10.0341
14112.0,-3.0454,0.1437,10.0413
14122.0,-3.0167,0.2251,9.9886
14132.0,-3.043,0.1724,10.0102
14142.0,-3.0095,0.2011,9.9455
14152.0,-2.9353,0.2107,9.9455
14162.0,-2.9592,0.0958,9.9144
14172.0,-3.0526,0.1676,9.9216
14182.0,-3.0933,0.1556,10.0126
14192.0,-3.1029,0.2059,10.0245
14202.0,-3.0957,0.2179,9.9383
14212.0,-3.0813,0.2658,9.9479
14222.0,-2.964,0.158,9.8952
14232.0,-3.1173,0.2634,9.7923
14242.0,-3.1029,0.3112,9.833
14252.0,-3.2202,0.3089,9.8497
14262.0,-3.1508,0.2873,9.8713
14272.0,-3.1101,0.3041,9.7492
14282.0,-3.1292,0.2729,9.6965
14292.0,-3.0287,0.3089,9.6774
14302.0,-2.9856,0.3424,9.6271
14312.0,-2.8683,0.3519,9.5792
14322.0,-2.8898,0.3711,9.5577
14332.0,-2.9233,0.4405,9.5672
14342.0,-2.9042,0.486,9.5361
14352.0,-2.9951,0.4214,9.6391
14362.0,-3.0478,0.4549,9.754
14372.0,-3.0909,0.5387,9.8019
14382.0,-3.0837,0.6081,9.9383
14392.0,-3.0526,0.5004,9.7803
14402.0,-2.9904,0.4812,9.6391
14412.0,-2.8994,0.5531,9.5529
14422.0,-2.8515,0.51,9.4643
14432.0,-2.9113,0.5267,9.4212
14442.0,-2.873,0.5171,9.6175
14452.0,-2.9664,0.5962,9.6343
14462.0,-2.9999,0.6033,9.7324
14472.0,-3.0047,0.5531,9.754
14482.0,-3.0837,0.4381,9.8665
14492.0,-3.0502,0.4453,9.7947
14502.0,-3.0837,0.5028,9.7779
14512.0,-2.9425,0.4573,9.7324
14522.0,-3.0167,0.4836,9.5529
14532.0,-2.8754,0.4405,9.4882
14542.0,-2.9353,0.5986,9.2727
14552.0,-2.9185,0.5076,9.5505
14562.0,-3.0765,0.4764,9.6702
14572.0,-3.1771,0.4956,9.7396
14582.0,-3.2753,0.4597,9.9096
14592.0,-3.2657,0.5028,9.9934
14602.0,-3.1963,0.5291,9.9599
14612.0,-3.0071,0.4932,9.6941
14622.0,-2.9353,0.5195,9.4523
14632.0,-2.8252,0.4788,9.3829
14642.0,-2.8539,0.3998,9.3901
14652.0,-3.0119,0.3974,9.493
14662.0,-3.0335,0.4597,9.7492
14672.0,-3.0957,0.3543,9.7683
14682.0,-2.9999,0.4453,9.8114
14692.0,-2.897,0.3759,9.4643
14702.0,-2.8132,0.3663,9.323
14712.0,-2.6456,0.3184,9.1626
14722.0,-2.7102,0.2131,9.2488
14732.0,-2.7509,0.1915,9.2943
14742.0,-2.7749,0.2011,9.5265
14752.0,-2.964,0.2945,9.3853
14762.0,-2.7342,0.3567,9.5433
14772.0,-2.7126,0.2155,9.5074
14782.0,-2.7246,0.1796,9.4595
14792.0,-2.8467,0.2394,9.6367
14802.0,-2.8467,0.249,9.7492
14812.0,-2.8587,0.2346,9.833
14822.0,-2.9209,0.2658,9.9311
14832.0,-2.8563,0.3328,9.7588
14842.0,-2.7342,0.261,9.5122
14852.0,-2.5738,0.3089,9.335
14862.0,-2.6384,0.2251,9.402
14872.0,-2.8108,0.237,9.5768
14882.0,-2.9329,0.3519,9.8426
14892.0,-2.9904,0.3735,10.1418
14902.0,-3.0239,0.431,10.2472
14912.0,-2.9473,0.4357,10.1562
14922.0,-2.9185,0.4429,9.9407
14932.0,-2.9951,0.4429,10.0126
14942.0,-2.9161,0.4573,9.8904
14952.0,-2.9401,0.4286,9.9311
14962.0,-2.9497,0.4429,9.9359
14972.0,-2.9137,0.4764,10.0724
14982.0,-2.9568,0.4764,10.0054
14992.0,-2.976,0.5626,10.1418
15002.0,-2.9616,0.5459,10.1538
15012.0,-2.8659,0.6057,9.924
15022.0,-2.9521,0.5507,9.9647
15032.0,-2.806,0.4501,9.8809
15042.0,-2.9185,0.34,9.9647
15052.0,-2.9066,0.3328,9.9766
15062.0,-2.885,0.407,10.0724
15072.0,-2.9664,0.3998,10.2639
15082.0,-2.8347,0.4717,10.149
15092.0,-2.7581,0.4549,9.9838
15102.0,-2.8419,0.3711,9.9144
15112.0,-2.7964,0.419,9.8067
15122.0,-2.909,0.5028,9.9742
15132.0,-3.0023,0.5315,10.1059
15142.0,-2.9999,0.5148,10.1442
15152.0,-2.964,0.5171,10.1083
15162.0,-2.9137,0.5243,10.0461
15172.0,-2.9425,0.4405,9.9407
15182.0,-2.8754,0.5171,9.9168
15192.0,-2.9616,0.5148,9.9216
15202.0,-2.9592,0.4884,9.9168
15212.0,-2.9832,0.4956,9.9144
15222.0,-2.964,0.4238,9.9551
15232.0,-3.0622,0.2921,10.0509
15242.0,-2.9928,0.4334,9.9647
15252.0,-2.9281,0.3974,9.9407
15262.0,-2.9473,0.4429,9.8426
15272.0,-2.8539,0.51,9.7707
15282.0,-2.9425,0.3615,9.9168
15292.0,-2.8706,0.4956,9.8521
15302.0,-2.8156,0.431,9.9503
15312.0,-2.8539,0.3448,9.9024
15322.0,-2.897,0.4836,9.7683
15332.0,-2.885,0.3998,9.8713
15342.0,-2.8635,0.3998,9.7971
15352.0,-2.8659,0.395,9.7731
15362.0,-2.8539,0.3759,9.8354
15372.0,-2.7342,0.3807,9.7923
15382.0,-2.6935,0.4094,9.7564
15392.0,-2.6863,0.4525,9.5936
15402.0,-2.648,0.4166,9.5624
15412.0,-2.715,0.4094,9.5816
15422.0,-2.7581,0.3112,9.7324
15432.0,-2.9568,0.3256,9.8354
15442.0,-2.8898,0.3543,9.7827
15452.0,-2.8323,0.2466,9.8665
15462.0,-2.7773,0.2801,9.6822
15472.0,-2.7916,0.2825,9.6199
15482.0,-2.7605,0.2753,9.6798
15492.0,-2.8012,0.2658,9.6798
15502.0,-2.8108,0.316,9.6295
15512.0,-2.8443,0.3519,9.7444
15522.0,-2.8539,0.2777,9.8043
15532.0,-2.8922,0.2227,9.8114
15542.0,-2.9688,0.2849,9.8402
15552.0,-3.0095,0.316,9.7229
15562.0,-2.8754,0.3831,9.7492
15572.0,-2.9305,0.3855,9.8737
15582.0,-2.8323,0.4477,9.8067
15592.0,-2.7557,0.3783,9.7995
15602.0,-2.7318,0.5052,9.754
15612.0,-2.6049,0.5626,9.8354
15622.0,-2.6121,0.51,9.8067
15632.0,-2.6121,0.5722,9.7133
15642.0,-2.7557,0.6225,9.8258
15652.0,-2.885,0.6608,10.0652
15662.0,-3.0215,0.6512,10.1514
15672.0,-3.0358,0.644,10.1778
15682.0,-2.909,0.5531,10.2137
15692.0,-2.7725,0.5363,9.9311
15702.0,-2.7222,0.5578,9.8378
15712.0,-2.6719,0.4884,9.7995
15722.0,-2.7222,0.4836,9.8186
15732.0,-2.8371,0.4764,9.9695
15742.0,-2.8347,0.4238,9.9958
15752.0,-2.9928,0.3855,10.1203
15762.0,-2.9999,0.4094,10.0987
15772.0,-2.9425,0.3639,10.1275
15782.0,-2.9353,0.3328,10.0078
15792.0,-2.8706,0.2586,9.9958
15802.0,-2.7629,0.2562,9.6534
15812.0,-2.7294,0.2179,9.5289
15822.0,-2.6695,0.1437,9.5648
15832.0,-2.7294,0.1772,9.4355
15842.0,-2.8204,0.17,9.6678
15852.0,-2.8635,0.1724,9.845
15862.0,-2.897,0.2705,9.9335
15872.0,-2.794,0.182,9.9934
15882.0,-2.7845,0.2777,9.8713
15892.0,-2.6743,0.1077,9.7396
15902.0,-2.6145,0.3232,9.754
15912.0,-2.6217,0.3089,9.6462
15922.0,-2.5762,0.419,9.584
15932.0,-2.7485,0.4621,9.6151
15942.0,-2.8563,0.4525,9.9671
15952.0,-2.7701,0.5674,9.8976
15962.0,-2.8515,0.5315,9.9311
15972.0,-2.8898,0.5315,9.9766
15982.0,-2.7845,0.5507,9.7995
15992.0,-2.7533,0.6105,9.8689
16002.0,-2.7342,0.656,9.8258
16012.0,-2.7629,0.7087,9.7252
16022.0,-2.7773,0.68,9.7205
16032.0,-2.806,0.6608,9.7109
16042.0,-2.8802,0.5722,9.9838
16052.0,-2.9544,0.5914,9.9551
16062.0,-3.0239,0.6009,9.9551
16072.0,-2.9664,0.6081,9.8713
16082.0,-2.9377,0.6512,9.7516
16092.0,-2.9018,0.6608,9.7707
16102.0,-2.8587,0.6656,9.7037
16112.0,-2.9018,0.6656,9.6151
16122.0,-3.0095,0.6369,9.6726
16132.0,-2.9377,0.644,9.6822
16142.0,-2.9449,0.6009,9.845
16152.0,-2.9281,0.6321,9.7971
16162.0,-3.0119,0.5962,9.6151
16172.0,-2.9497,0.5818,9.6271
16182.0,-2.9616,0.4764,9.6822
16192.0,-2.9305,0.5363,9.7205
16202.0,-2.9281,0.4884,9.7157
16212.0,-2.8515,0.5148,9.6989
16222.0,-2.9329,0.5674,9.7899
16232.0,-2.9137,0.4741,9.821
16242.0,-2.8659,0.5219,9.8785
16252.0,-2.8419,0.5483,9.6869
16262.0,-2.7102,0.5195,9.6534
16272.0,-2.7222,0.5866,9.6582
16282.0,-2.7294,0.5746,9.6462
16292.0,-2.6528,0.5962,9.572
16302.0,-2.6911,0.6249,9.7109
16312.0,-2.7749,0.6345,9.5696
16322.0,-2.8539,0.5435,9.8306
16332.0,-2.9616,0.589,9.979
16342.0,-2.9592,0.6201,10.0724
16352.0,-2.988,0.656,10.1011
16362.0,-2.8898,0.6895,10.0269
16372.0,-2.7988,0.6752,9.7995
16382.0,-2.6839,0.7422,9.7731
16392.0,-2.6049,0.6776,9.5936
16402.0,-2.6169,0.6991,9.6534
16412.0,-2.7509,0.5938,9.6822
16422.0,-2.9425,0.6608,9.8904
16432.0,-3.0598,0.6656,10.0461
16442.0,-3.122,0.6273,10.2232
16452.0,-3.0765,0.6369,10.2256
16462.0,-2.9473,0.7063,10.1394
16472.0,-2.8515,0.6752,9.8952
16482.0,-2.8299,0.577,9.7061
16492.0,-2.727,0.6177,9.663
16502.0,-2.806,0.6129,9.7731
16512.0,-2.8706,0.6464,9.7372
16522.0,-2.9712,0.6393,9.8114
16532.0,-2.9999,0.5986,10.0341
16542.0,-3.0382,0.6081,10.1011
16552.0,-3.0023,0.5483,10.0748
16562.0,-2.9353,0.6081,9.9288
16572.0,-2.9018,0.5459,9.7899
16582.0,-2.8036,0.4693,9.7109
16592.0,-2.7198,0.486,9.5696
16602.0,-2.794,0.4357,9.6343
16612.0,-2.8754,0.4525,9.7037
16622.0,-2.9928,0.5148,9.7971
16632.0,-3.0071,0.4549,9.8354
16642.0,-3.0478,0.3998,9.9503
16652.0,-2.9856,0.3615,9.8474
16662.0,-2.976,0.3591,9.754
16672.0,-2.8922,0.3352,9.675
16682.0,-2.885,0.328,9.6989
16692.0,-2.8467,0.3567,9.517
16702.0,-2.9329,0.3903,9.6534
16712.0,-2.8994,0.4046,9.6223
16722.0,-2.9233,0.4094,9.6869
16732.0,-2.9497,0.4621,9.833
16742.0,-2.9664,0.4573,9.7995
16752.0,-3.0406,0.4357,9.9264
16762.0,-2.9712,0.4836,9.9216
16772.0,-2.9784,0.3831,9.8162
16782.0,-2.9784,0.4573,9.7803
16792.0,-2.9473,0.4573,9.8258
16802.0,-2.9521,0.4549,9.9216
16812.0,-2.9161,0.5028,9.8569
16822.0,-2.885,0.4645,9.9311
16832.0,-2.8491,0.5842,9.8474
16842.0,-2.8659,0.5387,9.7995
16852.0,-2.8635,0.4741,9.7923
16862.0,-2.976,0.4405,9.8593
16872.0,-2.9449,0.51,9.8928
16882.0,-2.9928,0.4573,9.9623
16892.0,-2.9568,0.4573,9.9862
16902.0,-2.9137,0.51,9.8976
16912.0,-2.8826,0.4238,9.8665
16922.0,-2.964,0.3903,9.8354
16932.0,-2.8683,0.407,9.8641
16942.0,-2.909,0.3998,9.8043
16952.0,-2.8252,0.3998,9.7995
16962.0,-2.8323,0.3998,9.6893
16972.0,-2.8276,0.4094,9.6462
16982.0,-2.8563,0.3783,9.7444
16992.0,-2.9736,0.3926,9.7779
17002.0,-2.9018,0.3136,9.845
17012.0,-2.9592,0.4525,9.8114
17022.0,-2.9137,0.3998,9.8186
17032.0,-2.8204,0.3424,9.6654
17042.0,-2.7892,0.3184,9.6989
17052.0,-2.7869,0.3496,9.6941
17062.0,-2.8299,0.3376,9.7636
17072.0,-2.8922,0.4286,9.8067
17082.0,-2.8706,0.4046,9.9024
17092.0,-2.8874,0.4118,9.9742
17102.0,-2.8347,0.3615,9.7683
17112.0,-2.8659,0.3855,9.7037
17122.0,-2.7485,0.3184,9.6941
17132.0,-2.7797,0.3041,9.5912
17142.0,-2.7629,0.4142,9.5481
17152.0,-2.794,0.3807,9.6726
17162.0,-2.8587,0.3639,9.6103
17172.0,-2.9425,0.3807,9.7324
17182.0,-2.8347,0.4142,9.742
17192.0,-2.897,0.3998,9.9407
17202.0,-2.9353,0.395,9.7492
17212.0,-2.8323,0.395,9.7683
17222.0,-2.8299,0.4022,9.5624
17232.0,-2.7414,0.4166,9.6343
17242.0,-2.7725,0.4788,9.6367
17252.0,-2.7892,0.4453,9.6893
17262.0,-2.8683,0.4788,9.6534
17272.0,-2.9592,0.419,9.8785
17282.0,-3.0023,0.4381,9.9623
17292.0,-3.0143,0.4357,9.9288
17302.0,-2.9257,0.4453,10.0197
17312.0,-2.8539,0.5052,9.9
17322.0,-2.7845,0.5171,9.8521
17332.0,-2.7222,0.5555,9.833
17342.0,-2.7533,0.5195,9.7109
17352.0,-2.7749,0.4932,9.7755
17362.0,-2.885,0.5124,9.9455
17372.0,-2.9042,0.51,9.8138
17382.0,-2.9904,0.51,10.1083
17392.0,-2.909,0.4286,9.9838
17402.0,-2.8802,0.577,9.8904
17412.0,-2.9712,0.4645,10.0221
17422.0,-2.8539,0.4525,10.0317
17432.0,-2.8539,0.5148,10.0245
17442.0,-2.8635,0.4812,10.0054
17452.0,-2.8012,0.5555,9.9335
17462.0,-2.7605,0.589,9.7372
17472.0,-2.7102,0.6009,9.6965
17482.0,-2.6504,0.5363,9.7085
17492.0,-2.6408,0.5459,9.6151
17502.0,-2.7007,0.5315,9.6582
17512.0,-2.7342,0.4597,9.6295
17522.0,-2.7078,0.5124,9.6726
17532.0,-2.7461,0.4812,9.7468
17542.0,-2.8276,0.5004,9.8402
17552.0,-2.7988,0.5578,9.7396
17562.0,-2.7797,0.589,9.742
17572.0,-2.8012,0.5219,9.7588
17582.0,-2.8204,0.5243,9.7899
17592.0,-2.7126,0.5626,9.7947
17602.0,-2.6432,0.5674,9.6798
17612.0,-2.7294,0.5938,9.6606
17622.0,-2.7509,0.5411,9.6271
17632.0,-2.8084,0.5243,9.7755
17642.0,-2.8036,0.5243,9.7181
17652.0,-2.9185,0.5722,9.7612
17662.0,-2.9233,0.5507,9.7923
17672.0,-2.9688,0.5243,9.7923
17682.0,-2.9951,0.5243,9.8258
17692.0,-2.9712,0.5195,9.8713
17702.0,-2.9521,0.5626,9.9192
17712.0,-2.8754,0.5722,9.8761
17722.0,-2.8826,0.5794,9.8809
17732.0,-2.8204,0.5411,9.8569
17742.0,-2.7797,0.5794,9.8186
17752.0,-2.7892,0.5698,9.8067
17762.0,-2.8754,0.5914,9.8402
17772.0,-2.8539,0.6201,10.0006
17782.0,-2.8012,0.6369,10.0269
17792.0,-2.7414,0.6656,9.9024
17802.0,-2.7533,0.6297,9.9192
17812.0,-2.8132,0.6393,9.8258
17822.0,-2.7078,0.656,9.7971
17832.0,-2.8491,0.5674,9.8761
17842.0,-2.8299,0.5746,9.9383
17852.0,-2.8323,0.6009,9.8282
17862.0,-2.8683,0.5938,9.8857
17872.0,-2.8132,0.5818,9.9096
17882.0,-2.8706,0.5315,9.8354
17892.0,-2.7988,0.498,9.8689
17902.0,-2.7797,0.51,9.8306
17912.0,-2.7797,0.5674,9.6822
17922.0,-2.8419,0.5459,9.7707
17932.0,-2.8898,0.4621,9.7229
17942.0,-2.9185,0.4549,9.833
17952.0,-2.9042,0.4142,9.7396
17962.0,-2.8467,0.4836,9.8138
17972.0,-2.8706,0.4693,9.7372
17982.0,-2.8036,0.4884,9.6893
17992.0,-2.8491,0.5004,9.6438
18002.0,-2.8898,0.3759,9.7612
18012.0,-2.9449,0.4573,9.8282
18022.0,-2.9712,0.4405,9.979
18032.0,-3.0335,0.5004,9.8976
18042.0,-2.9784,0.4669,9.8928
18052.0,-2.9736,0.4573,9.821
18062.0,-2.7797,0.5028,9.7181
18072.0,-2.7916,0.4669,9.596
18082.0,-2.7533,0.4669,9.6391
18092.0,-2.8156,0.4405,9.6127
18102.0,-2.8371,0.4525,9.7683
18112.0,-2.9305,0.431,9.8761
18122.0,-2.9568,0.4429,9.8186
18132.0,-2.988,0.4717,9.8306
18142.0,-2.897,0.4549,9.8545
18152.0,-2.8611,0.4429,9.8426
18162.0,-2.8539,0.4956,9.833
18172.0,-2.873,0.4286,9.9024
18182.0,-2.8683,0.5267,9.8497
18192.0,-2.9209,0.4142,9.8497
18202.0,-2.9616,0.4812,9.7827
18212.0,-2.8802,0.4788,9.7516
18222.0,-2.8108,0.4764,9.7252
18232.0,-2.7749,0.5267,9.651
18242.0,-2.873,0.4741,9.6367
18252.0,-2.8898,0.4956,9.6845
18262.0,-2.9425,0.5555,9.8234
18272.0,-3.0239,0.5148,9.9503
18282.0,-3.0263,0.5938,10.0269
18292.0,-2.9784,0.6081,9.8809
18302.0,-2.8443,0.5794,9.8737
18312.0,-2.8395,0.6177,9.7205
18322.0,-2.7605,0.5842,9.7229
18332.0,-2.818,0.5459,9.6798
18342.0,-2.9233,0.5698,9.6558
18352.0,-2.9592,0.5076,9.7659
18362.0,-2.9185,0.4836,9.7731
18372.0,-2.9664,0.565,9.8809
18382.0,-2.9568,0.5459,9.8521
18392.0,-2.9161,0.6416,9.8976
18402.0,-2.9281,0.5866,9.8857
18412.0,-2.8419,0.5914,9.8952
18422.0,-2.8371,0.577,9.7588
18432.0,-2.8994,0.5866,9.7971
18442.0,-2.909,0.5602,9.7779
18452.0,-2.9832,0.5315,9.7276
18462.0,-2.9592,0.4764,9.9455
18472.0,-2.8515,0.4932,9.8617
18482.0,-2.8635,0.5411,9.7827
18492.0,-2.7414,0.5722,9.7636
18502.0,-2.7797,0.5052,9.7683
18512.0,-2.8252,0.5243,9.6869
18522.0,-2.8395,0.5507,9.7971
18532.0,-2.976,0.6105,9.9311
18542.0,-2.8994,0.5866,9.9024
18552.0,-2.9784,0.6033,9.9335
18562.0,-2.7725,0.6177,9.8569
18572.0,-2.7653,0.5986,9.821
18582.0,-2.7222,0.6105,9.8402
18592.0,-2.8874,0.5914,9.8976
18602.0,-2.9233,0.6321,9.9623
18612.0,-2.8826,0.6584,9.8976
18622.0,-2.9161,0.6369,9.9407
18632.0,-2.9137,0.6321,9.9958
18642.0,-2.8922,0.6823,9.9216
18652.0,-2.794,0.6105,9.7636
18662.0,-2.8443,0.5124,9.8785
18672.0,-2.8252,0.5267,9.7923
18682.0,-2.897,0.5195,9.8545
18692.0,-2.9808,0.6153,9.8689
18702.0,-2.9975,0.5435,9.9359
18712.0,-2.9808,0.5818,9.912
18722.0,-2.9209,0.5698,9.9383
18732.0,-2.8204,0.5459,9.8114
18742.0,-2.8036,0.5746,9.6223
18752.0,-2.648,0.589,9.5792
18762.0,-2.6911,0.5339,9.6055
18772.0,-2.7054,0.5387,9.6391
18782.0,-2.7701,0.5674,9.5792
18792.0,-2.8922,0.4884,9.675
18802.0,-2.8659,0.5315,9.7803
18812.0,-2.9975,0.4645,10.0269
18822.0,-2.9712,0.5004,10.0197
18832.0,-2.9018,0.5698,9.9024
18842.0,-2.794,0.6249,9.7205
18852.0,-2.6935,0.5555,9.5529
18862.0,-2.7222,0.4884,9.5936
18872.0,-2.7031,0.4453,9.505
18882.0,-2.7318,0.4453,9.6438
18892.0,-2.806,0.4549,9.7731
18902.0,-2.873,0.4741,9.7995
18912.0,-2.9042,0.4669,9.7707
18922.0,-2.8898,0.5052,9.754
18932.0,-2.8132,0.4693,9.8067
18942.0,-2.8635,0.4693,9.7707
18952.0,-2.8778,0.5483,9.809
18962.0,-2.8683,0.5243,9.6534
18972.0,-2.9401,0.498,9.7013
18982.0,-2.9305,0.5794,9.8354
18992.0,-2.8898,0.5555,9.8282
19002.0,-2.8946,0.5315,9.8809
19012.0,-2.9137,0.5507,9.8617
19022.0,-2.7629,0.5722,9.8426
19032.0,-2.7653,0.5028,9.8928
19042.0,-2.806,0.5195,9.7683
19052.0,-2.7605,0.5459,9.675
19062.0,-2.7557,0.4645,9.5936
19072.0,-2.7892,0.5124,9.5505
19082.0,-2.7845,0.5363,9.6199
19092.0,-2.8252,0.5243,9.7707
19102.0,-2.8778,0.5722,9.9455
19112.0,-2.9209,0.5339,10.0054
19122.0,-2.9233,0.498,9.9766
19132.0,-2.897,0.4788,9.9216
19142.0,-2.9377,0.5363,10.0054
19152.0,-2.8443,0.5459,9.912
19162.0,-2.8659,0.5459,9.8378
19172.0,-2.8156,0.5818,9.8713
19182.0,-2.7653,0.5794,9.8138
19192.0,-2.8419,0.5363,9.8665
19202.0,-2.8754,0.5698,9.8474
19212.0,-2.8563,0.5698,9.9288
19222.0,-2.8898,0.51,10.0221
19232.0,-2.9377,0.5363,9.9407
19242.0,-2.9305,0.4932,9.8785
19252.0,-2.885,0.5267,9.9048
19262.0,-2.8539,0.5339,9.8521
19272.0,-2.9233,0.4836,9.8402
19282.0,-2.8683,0.4405,9.7851
19292.0,-2.8323,0.4788,9.7372
19302.0,-2.8635,0.5052,9.8617
19312.0,-2.7485,0.5411,9.7564
19322.0,-2.7677,0.5171,9.7707
19332.0,-2.7533,0.5267,9.6869
19342.0,-2.7342,0.4693,9.7157
19352.0,-2.7222,0.5698,9.7636
19362.0,-2.8587,0.5626,9.73
19372.0,-2.8706,0.4884,9.8402
19382.0,-2.8706,0.5555,10.0365
19392.0,-2.885,0.5986,9.9575
19402.0,-2.976,0.5315,9.9096
19412.0,-2.8228,0.5459,9.8067
19422.0,-2.7797,0.5555,9.8186
19432.0,-2.7557,0.5555,9.7252
19442.0,-2.7414,0.5698,9.6822
19452.0,-2.7749,0.5674,9.6726
19462.0,-2.8587,0.4788,9.7923
19472.0,-2.9449,0.4405,9.809
19482.0,-2.9544,0.4525,9.8881
19492.0,-2.9066,0.4381,9.8258
19502.0,-2.7677,0.5124,9.7181
19512.0,-2.7821,0.4501,9.6223
19522.0,-2.7533,0.5076,9.5122
19532.0,-2.8491,0.4094,9.6774
19542.0,-2.9233,0.4214,9.7133
19552.0,-2.9568,0.3926,9.8354
19562.0,-2.9592,0.3711,9.7851
19572.0,-2.8443,0.395,9.991
19582.0,-2.806,0.486,9.8545
19592.0,-2.8443,0.4884,9.833
19602.0,-2.6959,0.4405,9.8402
19612.0,-2.6887,0.4501,9.5648
19622.0,-2.8395,0.4142,9.7372
19632.0,-2.7438,0.4429,9.73
19642.0,-2.6911,0.4645,9.7396
19652.0,-2.7749,0.4262,9.9814
19662.0,-2.8299,0.5435,9.8665
19672.0,-2.8371,0.5195,9.9623
19682.0,-2.8156,0.5842,9.979
19692.0,-2.9401,0.577,10.0078
19702.0,-2.8898,0.5195,9.9168
19712.0,-2.8108,0.6153,9.8545
19722.0,-2.9377,0.5219,9.7875
19732.0,-2.7916,0.5459,9.7899
19742.0,-2.7773,0.6177,9.7923
19752.0,-2.7629,0.5914,9.7803
19762.0,-2.7988,0.6297,9.8306
19772.0,-2.8012,0.6105,9.7851
19782.0,-2.7605,0.5698,9.7899
19792.0,-2.897,0.5602,9.754
19802.0,-2.9305,0.5291,9.8138
19812.0,-2.9257,0.565,9.9407
19822.0,-2.8946,0.5243,9.8545
19832.0,-2.8012,0.4932,9.8114
19842.0,-2.8491,0.4908,9.7899
19852.0,-2.8539,0.498,9.651
19862.0,-2.9401,0.5076,9.7947
19872.0,-2.9113,0.4645,9.8162
19882.0,-2.9568,0.5004,9.8737
19892.0,-2.8826,0.5602,9.7923
19902.0,-2.9042,0.4836,9.8976
19912.0,-2.9784,0.4525,9.8497
19922.0,-2.9066,0.4357,9.8569
19932.0,-2.8706,0.5267,9.9048
19942.0,-2.9161,0.4477,9.9695
19952.0,-2.8874,0.5243,9.8497
19962.0,-2.964,0.4693,9.9335
19972.0,-2.9233,0.4429,9.924
19982.0,-2.8635,0.498,9.8881
19992.0,-2.9113,0.4717,10.0413
20002.0,-2.8563,0.5363,9.8881
20012.0,-2.8299,0.5363,9.8641
20022.0,-2.8443,0.4693,9.7851
20032.0,-2.8611,0.5148,9.7707
20042.0,-2.8778,0.4286,9.8282
20052.0,-2.9257,0.4142,9.8521
20062.0,-2.9999,0.5171,9.9216
20072.0,-2.9113,0.498,9.9048
20082.0,-2.9401,0.5148,9.9719
20092.0,-2.8371,0.5315,9.9216
20102.0,-2.7988,0.5746,9.8234
20112.0,-2.7773,0.4956,9.7971
20122.0,-2.7605,0.5315,9.7444
20132.0,-2.8299,0.4908,9.6462
20142.0,-2.7246,0.5339,9.6654
20152.0,-2.8395,0.5626,9.7899
20162.0,-2.897,0.5914,9.8402
20172.0,-2.8515,0.6728,9.8857
20182.0,-2.8706,0.5866,9.7683
20192.0,-2.8635,0.6297,9.7205
20202.0,-2.9018,0.5818,9.7468
20212.0,-2.897,0.6081,9.7276
20222.0,-2.897,0.6105,9.8186
20232.0,-2.8012,0.6129,9.7516
20242.0,-2.8659,0.5746,9.7229
20252.0,-2.8539,0.5722,9.8474
20262.0,-2.9497,0.5004,9.8282
20272.0,-2.8108,0.5626,9.8306
20282.0,-2.7078,0.5195,9.7492
20292.0,-2.7892,0.5818,9.651
20302.0,-2.7749,0.5219,9.6391
20312.0,-2.8012,0.5435,9.6606
20322.0,-2.909,0.5842,9.7229
20332.0,-2.8874,0.5148,9.7755
20342.0,-2.9137,0.5411,9.8833
20352.0,-2.909,0.5866,9.9096
20362.0,-2.9137,0.5459,9.8976
20372.0,-2.8778,0.5028,9.7803
20382.0,-2.8323,0.5124,9.7707
20392.0,-2.8204,0.4884,9.7085
20402.0,-2.7988,0.4741,9.7037
20412.0,-2.8515,0.5243,9.9144
20422.0,-2.8395,0.5555,9.8258
20432.0,-2.8778,0.5195,9.9
20442.0,-2.9018,0.5195,9.9742
20452.0,-2.976,0.5866,9.991
20462.0,-2.9951,0.5315,9.9407
20472.0,-3.0358,0.5507,9.8569
20482.0,-2.9233,0.5267,9.8833
20492.0,-2.8587,0.5483,9.7324
20502.0,-2.909,0.5602,9.7181
20512.0,-2.8683,0.5842,9.7013
20522.0,-2.8156,0.5698,9.7229
20532.0,-2.8252,0.5028,9.7683
20542.0,-2.9928,0.5746,9.8665
20552.0,-2.9137,0.6081,9.8641
20562.0,-2.9521,0.4836,9.8976
20572.0,-2.9521,0.5435,9.8665
20582.0,-2.8659,0.5674,9.7133
20592.0,-2.8299,0.5195,9.7875
20602.0,-2.8491,0.5195,9.7157
20612.0,-2.909,0.5866,9.6223
20622.0,-2.8539,0.5052,9.8019
20632.0,-2.897,0.4573,9.8043
20642.0,-2.9281,0.4956,9.8521
20652.0,-2.909,0.5243,9.9264
20662.0,-2.885,0.5195,10.0221
20672.0,-2.8204,0.5171,9.9551
20682.0,-2.8036,0.4405,9.7899
20692.0,-2.739,0.5315,9.6414
20702.0,-2.8299,0.5866,9.6654
20712.0,-2.794,0.4932,9.6367
20722.0,-2.8443,0.5411,9.73
20732.0,-2.9664,0.6297,9.9359
20742.0,-3.0143,0.5028,10.0006
20752.0,-3.0167,0.4884,10.1347
20762.0,-2.9832,0.4884,9.9934
20772.0,-2.9353,0.4645,9.8497
20782.0,-2.8539,0.4621,9.7133
20792.0,-2.7007,0.5052,9.6941
20802.0,-2.6815,0.5124,9.7085
20812.0,-2.8323,0.5171,9.6438
20822.0,-2.7797,0.5267,9.8258
20832.0,-3.0143,0.4764,9.7827
20842.0,-2.9736,0.4477,9.9527
20852.0,-2.8922,0.4693,9.8258
20862.0,-2.8563,0.4573,9.7492
20872.0,-2.806,0.5219,9.7971
20882.0,-2.7701,0.589,9.8282
20892.0,-2.8108,0.5076,9.8067
20902.0,-2.8515,0.565,9.7564
20912.0,-2.7701,0.5315,9.7588
20922.0,-2.7629,0.5746,9.7468
20932.0,-2.7797,0.4357,9.7803
20942.0,-2.7964,0.5267,9.6654
20952.0,-2.8443,0.5602,9.8569
20962.0,-2.8204,0.656,9.8689
20972.0,-2.7892,0.656,9.8881
20982.0,-2.7174,0.6776,9.821
20992.0,-2.648,0.7302,9.6798
21002.0,-2.7581,0.6321,9.7085
21012.0,-2.7054,0.6345,9.7731
21022.0,-2.8395,0.6369,9.7923
21032.0,-2.8156,0.6225,9.8067
21042.0,-2.8659,0.5746,9.8138
21052.0,-2.8635,0.5938,9.8019
21062.0,-2.8635,0.5674,9.7636
21072.0,-2.9401,0.5459,9.8569
21082.0,-2.8922,0.5818,9.7348
21092.0,-2.8276,0.5818,9.8904
21102.0,-2.8204,0.5746,9.7564
21112.0,-2.7174,0.5387,9.7252
21122.0,-2.7174,0.4717,9.6534
21132.0,-2.7653,0.4932,9.7205
21142.0,-2.7845,0.4884,9.6941
21152.0,-2.8467,0.486,9.7947
21162.0,-2.8754,0.3711,9.8282
21172.0,-2.8778,0.4405,9.8545
21182.0,-2.8276,0.4645,9.8282
21192.0,-2.7916,0.431,9.8043
21202.0,-2.7749,0.4094,9.8138
21212.0,-2.8276,0.3998,9.8665
21222.0,-2.8132,0.419,9.7755
21232.0,-2.794,0.4262,9.7683
21242.0,-2.8156,0.3352,9.7181
21252.0,-2.7366,0.407,9.7707
21262.0,-2.7581,0.4022,9.6606
21272.0,-2.7988,0.3496,9.8234
21282.0,-2.7581,0.4429,9.7755
21292.0,-2.885,0.3974,9.8378
21302.0,-2.8252,0.4453,9.9359
21312.0,-2.8228,0.3974,9.8904
21322.0,-2.8228,0.4741,9.8306
21332.0,-2.8515,0.4764,9.7995
21342.0,-2.8276,0.4645,9.8114
21352.0,-2.8084,0.4597,9.7995
21362.0,-2.8012,0.5148,9.7779
21372.0,-2.7581,0.5243,9.7492
21382.0,-2.7031,0.4453,9.6965
21392.0,-2.7078,0.4956,9.6007
21402.0,-2.7222,0.4142,9.6822
21412.0,-2.7821,0.4381,9.7061
21422.0,-2.7533,0.4022,9.7803
21432.0,-2.806,0.3998,9.8162
21442.0,-2.8563,0.3591,9.8617
21452.0,-2.8802,0.3448,9.8833
21462.0,-2.9305,0.3352,9.8641
21472.0,-2.9832,0.407,9.8497
21482.0,-2.9784,0.3759,9.7971
21492.0,-2.8012,0.3591,9.7396
21502.0,-2.7845,0.3879,9.6247
21512.0,-2.6743,0.3903,9.6391
21522.0,-2.7485,0.4238,9.651
21532.0,-2.8515,0.4262,9.7636
21542.0,-3.0047,0.498,9.8234
21552.0,-3.0167,0.5076,9.9503
21562.0,-2.9928,0.5291,9.9647
21572.0,-2.9832,0.4717,9.9431
21582.0,-2.9353,0.4453,9.8593
21592.0,-2.8635,0.5411,9.6558
21602.0,-2.8683,0.5411,9.7444
21612.0,-2.9999,0.4908,9.8761
21622.0,-2.9784,0.5818,9.9695
21632.0,-2.9377,0.5986,10.0772
21642.0,-2.897,0.6297,10.1131
21652.0,-2.8946,0.5914,9.9264
21662.0,-2.7557,0.5986,9.8354
21672.0,-2.7629,0.5602,9.8138
21682.0,-2.8323,0.6249,9.7899
21692.0,-2.7964,0.6081,9.9311
21702.0,-2.8347,0.5698,9.9719
21712.0,-2.8539,0.6488,9.9766
21722.0,-2.885,0.5387,9.9192
21732.0,-2.7126,0.5124,9.8402
21742.0,-2.7749,0.5243,9.7229
21752.0,-2.8084,0.5363,9.8258
21762.0,-2.8515,0.4956,9.8689
21772.0,-2.8587,0.6201,9.8521
21782.0,-2.8659,0.6033,9.9575
21792.0,-2.8635,0.4741,9.9216
21802.0,-2.8826,0.577,9.8833
21812.0,-2.8802,0.5219,9.7061
21822.0,-2.8994,0.4884,9.7899
21832.0,-2.8659,0.5052,9.7252
21842.0,-2.8491,0.5363,9.7109
21852.0,-2.8706,0.5363,9.8186
21862.0,-2.8874,0.5794,9.7636
21872.0,-2.8802,0.5674,9.8234
21882.0,-3.0382,0.5914,9.8952
21892.0,-2.9928,0.5555,9.8426
21902.0,-2.976,0.5866,9.8641
21912.0,-2.9449,0.5411,9.8617
21922.0,-2.8922,0.589,9.8857
21932.0,-2.8419,0.6105,9.651
21942.0,-2.885,0.5674,9.6822
21952.0,-2.794,0.5507,9.7085
21962.0,-2.8084,0.6081,9.7588
21972.0,-2.7988,0.6273,9.7659
21982.0,-2.7916,0.5124,9.8258
21992.0,-2.9113,0.5435,9.912
22002.0,-2.9377,0.5243,9.9311
22012.0,-2.9544,0.5387,9.7947
22022.0,-2.9137,0.5171,9.8306
22032.0,-2.9377,0.5555,9.7875
22042.0,-2.8874,0.6129,9.8354
22052.0,-2.8659,0.6752,9.7396
22062.0,-2.8395,0.6488,9.6989
22072.0,-2.8754,0.5507,9.8474
22082.0,-2.9425,0.5914,9.8593
22092.0,-2.9784,0.6345,9.9479
22102.0,-2.9616,0.5746,9.9168
22112.0,-2.9832,0.6273,9.821
22122.0,-2.9425,0.6345,9.7468
22132.0,-2.8467,0.6393,9.7348
22142.0,-2.8276,0.6728,9.6007
22152.0,-2.7892,0.6536,9.6726
22162.0,-2.9257,0.644,9.7923
22172.0,-2.8443,0.6536,9.8162
22182.0,-2.9497,0.6225,9.9311
22192.0,-2.9544,0.5962,9.9024
22202.0,-2.909,0.6584,9.8617
22212.0,-2.8635,0.644,9.742
22222.0,-2.8084,0.6464,9.651
22232.0,-2.8156,0.6608,9.6845
22242.0,-2.9281,0.6608,9.7444
22252.0,-2.8347,0.6105,9.7923
22262.0,-2.8276,0.6512,9.7276
22272.0,-2.9353,0.6704,9.7683
22282.0,-2.8874,0.6464,9.754
22292.0,-2.8419,0.6488,9.7731
22302.0,-2.8778,0.644,9.6869
22312.0,-2.9497,0.5028,9.6893
22322.0,-2.9856,0.5866,9.7636
22332.0,-2.9377,0.6129,9.7731
22342.0,-2.8778,0.5459,9.6965
22352.0,-2.897,0.5794,9.6965
22362.0,-2.8754,0.6393,9.5816
22372.0,-2.8515,0.6393,9.596
22382.0,-2.8443,0.5986,9.6462
22392.0,-2.9497,0.5674,9.6414
22402.0,-3.0239,0.6201,9.6965
22412.0,-3.0119,0.6225,9.7683
22422.0,-3.0718,0.5674,9.8689
22432.0,-3.0957,0.5722,10.003
22442.0,-3.0071,0.577,9.8114
22452.0,-2.9616,0.6177,9.8593
22462.0,-2.8395,0.6249,9.8138
22472.0,-2.9568,0.589,9.7372
22482.0,-2.9113,0.5962,9.6462
22492.0,-3.0191,0.6297,9.8521
22502.0,-3.0095,0.5962,9.9479
22512.0,-3.0311,0.5818,9.9407
22522.0,-3.0382,0.5531,9.9766
22532.0,-2.9951,0.4788,9.821
22542.0,-2.9209,0.5052,9.6391
22552.0,-2.8898,0.51,9.6869
22562.0,-2.9497,0.486,9.7899
22572.0,-2.9688,0.5435,9.9024
22582.0,-3.0694,0.5507,9.9048
22592.0,-3.0957,0.5746,9.9264
22602.0,-2.9928,0.5411,9.8952
22612.0,-3.0119,0.5602,9.8306
22622.0,-3.0526,0.6009,9.9
22632.0,-2.9305,0.565,9.7707
22642.0,-2.9066,0.5722,9.7612
22652.0,-2.9137,0.5938,9.8258
22662.0,-2.8946,0.5914,9.7324
22672.0,-2.9305,0.5818,9.7348
22682.0,-2.8898,0.5914,9.8067
22692.0,-2.9928,0.6105,9.9359
22702.0,-2.9808,0.6369,9.9599
22712.0,-2.9497,0.6847,9.9479
22722.0,-2.9137,0.6512,9.845
22732.0,-2.8706,0.5698,9.7803
22742.0,-2.9305,0.6321,9.7683
22752.0,-2.8898,0.644,9.7468
22762.0,-3.0406,0.6177,9.6822
22772.0,-2.9401,0.6393,9.6917
22782.0,-2.988,0.6201,9.7875
22792.0,-3.0215,0.5938,9.8426
22802.0,-3.0933,0.6177,9.7899
22812.0,-2.9568,0.6225,9.6822
22822.0,-2.9544,0.7278,9.6582
22832.0,-2.8898,0.6632,9.572
22842.0,-2.9784,0.6416,9.5864
22852.0,-2.9808,0.6536,9.7396
22862.0,-3.0358,0.6919,9.7779
22872.0,-3.0957,0.6752,9.8665
22882.0,-3.055,0.7159,9.7995
22892.0,-3.043,0.6297,9.6989
22902.0,-3.0167,0.668,9.7037
22912.0,-3.0191,0.6991,9.5984
22922.0,-2.9951,0.644,9.7037
22932.0,-2.9784,0.6752,9.7444
22942.0,-3.0167,0.7111,9.7324
22952.0,-2.9449,0.644,9.7659
22962.0,-2.9712,0.6943,9.7612
22972.0,-2.9521,0.6632,9.6822
22982.0,-2.8611,0.7159,9.6007
22992.0,-2.8563,0.6895,9.6223
23002.0,-2.8706,0.6608,9.596
23012.0,-2.8754,0.589,9.7324
23022.0,-2.9377,0.5914,9.7348
23032.0,-3.0239,0.6249,9.7276
23042.0,-3.0263,0.5938,9.8378
23052.0,-2.9449,0.6153,9.8976
23062.0,-3.0095,0.6273,9.8138
23072.0,-2.9521,0.6488,9.7564
23082.0,-2.9473,0.7015,9.7133
23092.0,-2.8611,0.6776,9.6151
23102.0,-2.8539,0.644,9.5529
23112.0,-2.8802,0.6345,9.6127
23122.0,-3.0311,0.5962,9.7827
23132.0,-3.0478,0.5938,9.8928
23142.0,-3.1436,0.589,9.912
23152.0,-3.0861,0.6345,9.8976
23162.0,-3.0765,0.5914,9.7995
23172.0,-2.9951,0.6823,9.7971
23182.0,-3.0191,0.6967,9.8617
23192.0,-2.9568,0.7111,9.7013
23202.0,-2.9951,0.589,9.651
23212.0,-2.9664,0.6656,9.6989
23222.0,-3.0239,0.5866,9.7492
23232.0,-2.9616,0.6393,9.6414
23242.0,-3.0023,0.6512,9.7396
23252.0,-3.0167,0.6967,9.6414
23262.0,-3.0119,0.6823,9.7205
23272.0,-2.9664,0.6488,9.7755
23282.0,-2.9832,0.6632,9.7085
23292.0,-3.0454,0.6536,9.7995
23302.0,-3.0789,0.6177,9.7683
23312.0,-3.1627,0.6584,9.8474
23322.0,-3.1939,0.589,9.821
23332.0,-3.0789,0.668,9.8569
23342.0,-3.043,0.6297,9.7899
23352.0,-2.9544,0.656,9.6845
23362.0,-2.9353,0.6321,9.5313
23372.0,-2.9377,0.5914,9.5457
23382.0,-2.9904,0.5818,9.7109
23392.0,-3.1196,0.577,9.8162
23402.0,-3.1723,0.5938,9.9383
23412.0,-3.146,0.6177,10.0054
23422.0,-3.0598,0.6033,9.8426
23432.0,-2.9497,0.5986,9.7324
23442.0,-2.9401,0.6177,9.6438
23452.0,-2.9185,0.644,9.6223
23462.0,-2.9449,0.6536,9.5648
23472.0,-3.043,0.723,9.6845
23482.0,-3.0981,0.6464,9.7875
23492.0,-3.1484,0.5938,9.9623
23502.0,-3.1077,0.6416,9.8402
23512.0,-3.0789,0.6153,9.8665
23522.0,-3.0335,0.6177,9.7061
23532.0,-2.9928,0.6009,9.6247
23542.0,-2.9425,0.6297,9.6558
23552.0,-2.9425,0.6321,9.6582
23562.0,-3.0143,0.68,9.6893
23572.0,-3.0478,0.7015,9.8019
23582.0,-3.1149,0.6704,9.8976
23592.0,-3.055,0.6393,9.9168
23602.0,-3.1292,0.6249,9.8833
23612.0,-3.0622,0.6656,9.8138
23622.0,-3.1436,0.6464,9.7803
23632.0,-3.0382,0.6823,9.7827
23642.0,-3.0526,0.7135,9.7181
23652.0,-3.0023,0.7087,9.7252
23662.0,-3.0646,0.6704,9.7683
23672.0,-3.0622,0.6919,9.7492
23682.0,-2.988,0.7063,9.7061
23692.0,-3.1173,0.6321,9.7516
23702.0,-3.1101,0.6464,9.8019
23712.0,-3.0358,0.6895,9.8952
23722.0,-3.043,0.6608,9.8545
23732.0,-3.1077,0.7302,9.7755
23742.0,-3.0598,0.7326,9.7564
23752.0,-2.9425,0.7207,9.7683
23762.0,-2.9616,0.6752,9.6845
23772.0,-2.9808,0.7494,9.7612
23782.0,-3.0047,0.6656,9.8569
23792.0,-3.0119,0.6201,9.6654
23802.0,-2.9449,0.6297,9.6414
23812.0,-2.9592,0.6393,9.6223
23822.0,-2.9664,0.6608,9.5816
23832.0,-3.0239,0.723,9.7995
23842.0,-3.0718,0.6943,9.7731
23852.0,-3.0909,0.6847,9.7564
23862.0,-3.1268,0.6369,9.8019
23872.0,-2.9712,0.6225,9.584
23882.0,-3.0837,0.6464,9.6438
23892.0,-3.067,0.6249,9.7037
23902.0,-3.1005,0.6081,9.6989
23912.0,-3.0598,0.7111,9.7564
23922.0,-3.0837,0.6153,9.7707
23932.0,-3.0789,0.6967,9.6893
23942.0,-3.0311,0.6416,9.742
23952.0,-3.067,0.6129,9.6678
23962.0,-3.1173,0.5818,9.7468
23972.0,-3.1149,0.6225,9.8282
23982.0,-3.0382,0.7159,9.845
23992.0,-2.9999,0.6464,9.8545
24002.0,-3.0215,0.6249,9.7013
24012.0,-3.0071,0.6393,9.7755
24022.0,-3.0191,0.6177,9.7612
24032.0,-2.9712,0.6345,9.7683
24042.0,-2.964,0.6704,9.7396
24052.0,-2.9018,0.6321,9.742
24062.0,-2.9113,0.5938,9.7348
24072.0,-2.9736,0.6608,9.6965
24082.0,-2.988,0.6823,9.7588
24092.0,-2.9736,0.7063,9.8282
24102.0,-3.0742,0.668,9.7612
24112.0,-2.9904,0.6488,9.6606
24122.0,-2.9736,0.6369,9.7229
24132.0,-2.9999,0.6752,9.6845
24142.0,-3.0215,0.6393,9.5912
24152.0,-3.0694,0.6129,9.6199
24162.0,-3.0047,0.668,9.6343
24172.0,-3.0047,0.6057,9.6845
24182.0,-2.9113,0.6273,9.6438
24192.0,-2.9999,0.6129,9.6582
24202.0,-2.9928,0.6345,9.6726
24212.0,-3.0215,0.6704,9.6869
24222.0,-3.0263,0.7518,9.675
24232.0,-3.0454,0.6847,9.6438
24242.0,-3.0813,0.7015,9.7468
24252.0,-3.146,0.6728,9.8402
24262.0,-3.1843,0.6728,9.9072
24272.0,-3.1987,0.7254,9.8809
24282.0,-3.0574,0.7207,9.7612
24292.0,-3.0095,0.6728,9.6295
24302.0,-2.9473,0.7254,9.6103
24312.0,-2.9592,0.6823,9.5146
24322.0,-2.9281,0.5674,9.6199
24332.0,-2.9736,0.5507,9.651
24342.0,-3.0718,0.5722,9.7923
24352.0,-3.1053,0.6249,9.7923
24362.0,-3.1364,0.6752,9.9359
24372.0,-3.1939,0.6919,9.7731
24382.0,-3.1364,0.747,9.7755
24392.0,-3.1029,0.6536,9.8186
24402.0,-3.0957,0.7398,9.7731
24412.0,-3.0526,0.7135,9.6414
24422.0,-3.0335,0.7877,9.6893
24432.0,-3.0311,0.6991,9.7612
24442.0,-3.0478,0.6991,9.675
24452.0,-3.0646,0.6536,9.845
24462.0,-2.9975,0.6776,9.7636
24472.0,-3.0382,0.6081,9.7061
24482.0,-3.0191,0.656,9.6223
24492.0,-2.9712,0.7494,9.6055
24502.0,-2.9951,0.6871,9.6774
24512.0,-3.0215,0.6704,9.7205
24522.0,-3.0957,0.6752,9.8186
24532.0,-3.1651,0.6009,9.8857
24542.0,-3.1939,0.6273,9.8641
24552.0,-3.1699,0.6752,9.8593
24562.0,-3.0526,0.6895,9.754
24572.0,-3.0742,0.7733,9.7252
24582.0,-3.0454,0.7877,9.6822
24592.0,-3.0287,0.7901,9.6702
24602.0,-3.0478,0.8356,9.6989
24612.0,-3.0813,0.7638,9.7252
24622.0,-3.0478,0.7614,9.7157
24632.0,-3.1627,0.7302,9.7779
24642.0,-3.1891,0.7183,9.9288
24652.0,-3.1747,0.7015,9.924
24662.0,-3.1149,0.7207,9.8378
24672.0,-3.043,0.7422,9.6965
24682.0,-2.9377,0.7518,9.6127
24692.0,-3.0023,0.7446,9.6654
24702.0,-2.9257,0.7757,9.663
24712.0,-2.9473,0.7518,9.6414
24722.0,-3.055,0.7015,9.7229
24732.0,-3.0335,0.7542,9.809
24742.0,-3.0263,0.6704,9.6965
24752.0,-3.0957,0.6752,9.7324
24762.0,-3.1005,0.7063,9.742
24772.0,-3.0478,0.6728,9.6869
24782.0,-3.0861,0.6943,9.7013
24792.0,-2.976,0.7398,9.6798
24802.0,-3.0837,0.6919,9.6893
24812.0,-3.0574,0.7278,9.7037
24822.0,-3.134,0.7374,9.7037
24832.0,-3.2585,0.6728,9.8067
24842.0,-3.1987,0.6967,9.8593
24852.0,-3.201,0.656,9.7516
24862.0,-3.1963,0.6632,9.7229
24872.0,-3.0502,0.735,9.754
24882.0,-3.0789,0.7757,9.6702
24892.0,-3.0215,0.7733,9.5696
24902.0,-3.0646,0.7374,9.6893
24912.0,-3.0646,0.6608,9.6678
24922.0,-3.122,0.6991,9.7803
24932.0,-3.1484,0.7015,9.7995
24942.0,-3.134,0.6943,9.7492
24952.0,-3.0454,0.6967,9.6774
24962.0,-2.9736,0.7159,9.5936
24972.0,-2.9951,0.6632,9.6295
24982.0,-3.0694,0.747,9.6845
24992.0,-3.0311,0.6464,9.7827
25002.0,-3.2202,0.6895,9.8904
25012.0,-3.1603,0.6871,9.9335
25022.0,-3.1292,0.7135,9.8474
25032.0,-3.0861,0.7638,9.7324
25042.0,-3.0071,0.6871,9.675
25052.0,-2.9377,0.6345,9.6391
25062.0,-2.9736,0.6081,9.5217
25072.0,-3.1029,0.5962,9.7324
25082.0,-3.1364,0.5866,9.8282
25092.0,-3.1915,0.6009,9.9455
25102.0,-3.1771,0.577,9.8833
25112.0,-3.1388,0.6632,9.8282
25122.0,-3.1699,0.6225,9.8545
25132.0,-3.0933,0.6752,9.8043
25142.0,-3.1077,0.7087,9.8138
25152.0,-3.1053,0.6345,9.7683
25162.0,-3.0909,0.7063,9.7468
25172.0,-3.0215,0.6464,9.6965
25182.0,-3.0502,0.6967,9.6606
25192.0,-3.0813,0.6345,9.6822
25202.0,-3.0574,0.6608,9.6055
25212.0,-3.1196,0.6153,9.6989
25222.0,-3.1077,0.6967,9.7468
25232.0,-3.1364,0.7063,9.7372
25242.0,-3.1125,0.6608,9.7588
25252.0,-3.1292,0.6919,9.651
25262.0,-3.0526,0.7685,9.7229
25272.0,-3.0215,0.7446,9.6031
25282.0,-2.988,0.7302,9.5433
25292.0,-3.043,0.7829,9.5768
25302.0,-3.0239,0.7326,9.6414
25312.0,-3.122,0.7063,9.6654
25322.0,-3.1556,0.6919,9.7588
25332.0,-3.1556,0.6345,9.7492
25342.0,-3.0813,0.656,9.7348
25352.0,-3.1029,0.6967,9.596
25362.0,-3.1029,0.6488,9.5936
25372.0,-3.0718,0.6129,9.4882
25382.0,-3.1532,0.6033,9.6031
25392.0,-3.1005,0.68,9.6774
25402.0,-3.0502,0.6345,9.5888
25412.0,-3.1532,0.5626,9.7037
25422.0,-3.1795,0.5483,9.6558
25432.0,-3.0335,0.6656,9.6295
25442.0,-3.1292,0.656,9.6414
25452.0,-3.1316,0.6297,9.7875
25462.0,-3.1244,0.6584,9.6869
25472.0,-3.1173,0.6297,9.7372
25482.0,-3.0981,0.6656,9.821
25492.0,-3.0742,0.6608,9.5912
25502.0,-3.0598,0.6249,9.6486
25512.0,-3.0957,0.5866,9.7109
25522.0,-3.1029,0.6369,9.7229
25532.0,-3.1627,0.5794,9.8234
25542.0,-3.146,0.644,9.8521
25552.0,-3.0813,0.6895,9.9072
25562.0,-3.0861,0.6369,9.8497
25572.0,-3.1292,0.6704,9.7181
25582.0,-3.0406,0.6847,9.651
25592.0,-3.0382,0.6608,9.6582
25602.0,-3.0837,0.668,9.6079
25612.0,-3.1101,0.6225,9.7109
25622.0,-3.1005,0.6512,9.754
25632.0,-3.1316,0.6393,9.7468
25642.0,-3.1556,0.6871,9.754
25652.0,-3.1196,0.6776,9.8282
25662.0,-3.1603,0.7015,9.8569
25672.0,-3.1675,0.6871,9.754
25682.0,-3.1101,0.6943,9.7372
25692.0,-3.0574,0.6823,9.6941
25702.0,-3.0454,0.7087,9.7229
25712.0,-3.0358,0.6752,9.7444
25722.0,-3.0622,0.6608,9.754
25732.0,-3.0335,0.6871,9.7516
25742.0,-3.0837,0.6991,9.6989
25752.0,-3.1484,0.656,9.8067
25762.0,-3.1412,0.656,9.73
25772.0,-3.1292,0.6273,9.7468
25782.0,-3.0742,0.6369,9.6606
25792.0,-3.0143,0.6512,9.7396
25802.0,-3.0957,0.5938,9.7636
25812.0,-3.0909,0.668,9.7324
25822.0,-3.0909,0.6033,9.9192
25832.0,-3.0837,0.5722,9.8354
25842.0,-3.2058,0.6321,9.7875
25852.0,-3.146,0.6081,9.8354
25862.0,-3.0311,0.7087,9.6893
25872.0,-3.0646,0.7111,9.7492
25882.0,-2.9425,0.6584,9.6582
25892.0,-2.9664,0.6584,9.7252
25902.0,-3.0358,0.6584,9.6798
25912.0,-3.1196,0.6536,9.7133
25922.0,-3.0742,0.6345,9.675
25932.0,-3.0287,0.7111,9.5984
25942.0,-3.0047,0.6153,9.6271
25952.0,-2.9999,0.6895,9.5792
25962.0,-3.0119,0.723,9.7899
25972.0,-3.0694,0.7063,9.7468
25982.0,-3.0742,0.644,9.8258
25992.0,-3.0957,0.7015,9.7468
26002.0,-3.0598,0.6895,9.6223
26012.0,-2.9832,0.6871,9.5912
26022.0,-2.9928,0.6393,9.5074
26032.0,-3.0406,0.6871,9.6271
26042.0,-2.9832,0.68,9.5553
26052.0,-3.0335,0.723,9.7037
26062.0,-3.0765,0.7087,9.7061
26072.0,-3.1651,0.644,9.7851
26082.0,-3.2226,0.6656,9.8067
26092.0,-3.1149,0.668,9.8186
26102.0,-3.1125,0.6321,9.7205
26112.0,-3.1149,0.6608,9.6343
26122.0,-3.1029,0.7135,9.6845
26132.0,-3.043,0.7087,9.6295
26142.0,-3.0382,0.6632,9.6319
26152.0,-3.0694,0.6416,9.6678
26162.0,-3.1077,0.6345,9.6343
26172.0,-3.134,0.6057,9.7252
26182.0,-3.122,0.6033,9.7181
26192.0,-3.158,0.644,9.7492
26202.0,-3.1173,0.6033,9.821
26212.0,-3.1364,0.6297,9.7731
26222.0,-3.0789,0.7087,9.8258
26232.0,-3.0382,0.6895,9.6965
26242.0,-3.0167,0.6871,9.7851
26252.0,-3.0167,0.6369,9.7109
26262.0,-2.9928,0.668,9.5792
26272.0,-3.0119,0.6464,9.6941
26282.0,-3.1125,0.6752,9.742
26292.0,-3.1268,0.68,9.809
26302.0,-3.1675,0.6871,9.9671
26312.0,-3.0861,0.6823,9.8521
26322.0,-3.0909,0.6776,9.7851
26332.0,-2.9664,0.7661,9.6558
26342.0,-3.0263,0.759,9.6127
26352.0,-3.0957,0.7302,9.7252
26362.0,-3.1196,0.723,9.7899
26372.0,-3.1292,0.6871,9.6965
26382.0,-3.0813,0.6776,9.7229
26392.0,-3.1364,0.6345,9.6941
26402.0,-3.1101,0.6201,9.6654
26412.0,-3.0981,0.6752,9.6151
26422.0,-3.0885,0.6584,9.5361
26432.0,-3.146,0.6608,9.5936
26442.0,-3.1125,0.6201,9.6007
26452.0,-3.043,0.6656,9.6223
26462.0,-3.0694,0.6919,9.5936
26472.0,-3.1053,0.6967,9.6103
26482.0,-3.1651,0.6823,9.6606
26492.0,-3.0598,0.644,9.7564
26502.0,-3.0622,0.6728,9.7923
26512.0,-3.1053,0.6943,9.7348
26522.0,-3.122,0.6584,9.7516
26532.0,-3.0718,0.68,9.6031
26542.0,-3.0502,0.735,9.5816
26552.0,-3.0574,0.7087,9.6917
26562.0,-3.1125,0.6081,9.6726
26572.0,-3.043,0.6991,9.6103
26582.0,-3.1268,0.6297,9.6319
26592.0,-3.1388,0.6081,9.7851
26602.0,-3.213,0.7135,9.7061
26612.0,-3.1508,0.6776,9.8067
26622.0,-3.1891,0.7039,9.8426
26632.0,-3.1388,0.7015,9.6965
26642.0,-3.1316,0.7183,9.7181
26652.0,-3.1508,0.7039,9.7659
26662.0,-3.1843,0.7087,9.7947
26672.0,-3.1867,0.6464,9.7468
26682.0,-3.1077,0.6488,9.7468
26692.0,-3.0382,0.68,9.7229
26702.0,-3.0909,0.7494,9.6295
26712.0,-3.0574,0.6919,9.6391
26722.0,-3.0502,0.7398,9.6822
26732.0,-3.0742,0.6943,9.7803
26742.0,-3.043,0.7207,9.73
26752.0,-3.0957,0.7446,9.6845
26762.0,-3.1005,0.6895,9.8785
26772.0,-3.1508,0.7063,9.7683
26782.0,-3.1484,0.656,9.8952
26792.0,-3.043,0.7015,9.845
26802.0,-3.067,0.7015,9.73
26812.0,-2.9712,0.7566,9.651
26822.0,-2.9473,0.735,9.7085
26832.0,-2.9832,0.6369,9.5457
26842.0,-3.0526,0.6991,9.5241
26852.0,-3.1987,0.6823,9.6127
26862.0,-3.1699,0.7254,9.7205
26872.0,-3.2034,0.7111,9.821
26882.0,-3.1963,0.6752,9.7109
26892.0,-3.1963,0.723,9.6941
26902.0,-3.1244,0.7278,9.6582
26912.0,-2.9832,0.656,9.4571
26922.0,-3.0167,0.7661,9.4188
26932.0,-3.043,0.6967,9.3589
26942.0,-3.0478,0.6991,9.4619
26952.0,-3.0382,0.7278,9.3781
26962.0,-3.043,0.7733,9.5936
26972.0,-3.1508,0.656,9.5098
26982.0,-3.1556,0.8308,9.4691
26992.0,-3.1316,0.8859,9.6606
27002.0,-3.2705,0.8188,9.821
27012.0,-3.2633,0.8499,9.7229
27022.0,-3.1915,0.917,9.7229
27032.0,-3.1268,1.0199,9.8258
27042.0,-3.1556,0.9649,9.6989
27052.0,-3.1508,0.9984,9.7133
27062.0,-3.1891,0.8978,9.8426
27072.0,-3.2441,0.8452,9.7971
27082.0,-3.134,0.9194,9.8641
27092.0,-3.2441,0.8835,9.9
27102.0,-3.2681,0.9337,9.8881
27112.0,-3.1819,0.9457,9.833
27122.0,-3.225,0.8811,9.8617
27132.0,-3.2274,0.9002,9.8617
27142.0,-3.1436,0.9361,9.7707
27152.0,-3.201,0.9098,9.7109
27162.0,-3.1963,0.9098,9.8497
27172.0,-3.1292,0.8356,9.8067
27182.0,-3.1723,0.8571,9.8474
27192.0,-3.2202,0.8356,9.8785
27202.0,-3.1173,0.905,9.7827
27212.0,-3.1149,0.8499,9.7779
27222.0,-3.0502,0.917,9.6223
27232.0,-3.0789,0.8475,9.7205
27242.0,-2.9928,0.8404,9.5217
27252.0,-3.0813,0.893,9.6007
27262.0,-3.0047,0.9146,9.6079
27272.0,-3.0622,0.9146,9.5768
27282.0,-3.1029,0.8116,9.6175
27292.0,-3.1196,0.8571,9.6486
27302.0,-3.1915,0.8954,9.8306
27312.0,-3.1987,0.8835,9.8689
27322.0,-3.201,0.9194,9.7468
27332.0,-3.1484,0.8763,9.7252
27342.0,-3.0861,0.8667,9.5241
27352.0,-3.067,0.9002,9.4595
27362.0,-3.0526,0.8068,9.5002
27372.0,-3.0311,0.7638,9.5648
27382.0,-3.0646,0.8284,9.7133
27392.0,-3.1005,0.8188,9.6438
27402.0,-3.1101,0.7757,9.505
27412.0,-3.0454,0.7853,9.6845
27422.0,-3.1364,0.7925,9.5648
27432.0,-3.146,0.8428,9.6271
27442.0,-3.2274,0.8404,9.6989
27452.0,-3.2178,0.7829,9.7061
27462.0,-3.1699,0.8763,9.7971
27472.0,-3.0789,0.8332,9.7157
27482.0,-3.122,0.7901,9.663
27492.0,-3.0909,0.7781,9.6534
27502.0,-2.9736,0.8116,9.6223
27512.0,-3.0837,0.7757,9.7612
27522.0,-3.1029,0.7685,9.6582
27532.0,-3.0143,0.8092,9.6007
27542.0,-3.0646,0.826,9.6151
27552.0,-3.0335,0.7183,9.8186
27562.0,-3.0861,0.7901,9.7923
27572.0,-3.0957,0.8212,9.6893
27582.0,-3.067,0.7973,9.7205
27592.0,-3.0335,0.7159,9.6079
27602.0,-3.0526,0.7709,9.6869
27612.0,-3.0574,0.7422,9.675
27622.0,-3.0933,0.826,9.7707
27632.0,-3.055,0.7422,9.6869
27642.0,-3.0071,0.7422,9.6774
27652.0,-3.0191,0.7781,9.6798
27662.0,-2.9736,0.7398,9.6438
27672.0,-2.9999,0.7278,9.5193
27682.0,-3.0358,0.7374,9.5385
27692.0,-3.0406,0.723,9.6103
27702.0,-3.1508,0.6919,9.5744
27712.0,-3.0311,0.6991,9.5984
27722.0,-3.1005,0.7159,9.6462
27732.0,-3.1101,0.7207,9.6606
27742.0,-3.1532,0.735,9.7947
27752.0,-3.1508,0.747,9.7707
27762.0,-3.0909,0.7326,9.7252
27772.0,-3.1675,0.6919,9.6798
27782.0,-3.1484,0.6823,9.7037
27792.0,-3.1053,0.7326,9.754
27802.0,-3.1053,0.7135,9.6606
27812.0,-3.067,0.7542,9.7252
27822.0,-3.0454,0.7063,9.7612
27832.0,-2.9928,0.7661,9.73
27842.0,-3.0981,0.7901,9.5864
27852.0,-3.1196,0.759,9.7109
27862.0,-3.1005,0.7518,9.7923
27872.0,-3.1963,0.7278,9.8785
27882.0,-3.146,0.7518,9.8186
27892.0,-3.1795,0.7685,9.7276
27902.0,-3.0311,0.7566,9.6486
27912.0,-2.9856,0.7494,9.7061
27922.0,-2.9951,0.7566,9.6199
27932.0,-3.0287,0.8092,9.6702
27942.0,-3.055,0.7997,9.7229
27952.0,-3.0789,0.6919,9.6822
27962.0,-3.1077,0.7494,9.821
27972.0,-3.1196,0.838,9.7396
27982.0,-3.122,0.7614,9.7755
27992.0,-3.0933,0.7781,9.6103
28002.0,-3.0933,0.7446,9.7468
28012.0,-3.1723,0.7518,9.7276
28022.0,-3.0765,0.7326,9.6726
28032.0,-3.1244,0.6943,9.6893
28042.0,-3.0598,0.7901,9.6055
28052.0,-3.0885,0.7039,9.5122
28062.0,-3.0789,0.6776,9.5457
28072.0,-3.1244,0.7566,9.6989
28082.0,-3.1603,0.7901,9.809
28092.0,-3.2034,0.8835,9.8857
28102.0,-3.2058,0.8164,9.8521
28112.0,-3.1771,0.8308,9.7827
28122.0,-3.146,0.838,9.7707
28132.0,-3.1316,0.7494,9.7013
28142.0,-3.1412,0.7733,9.7109
28152.0,-3.1101,0.735,9.7971
28162.0,-3.1005,0.7278,9.6055
28172.0,-3.1077,0.7685,9.6271
28182.0,-3.0646,0.7518,9.7444
28192.0,-3.0765,0.7901,9.73
28202.0,-3.1843,0.723,9.6869
28212.0,-3.2034,0.723,9.7252
28222.0,-3.1532,0.7015,9.754
28232.0,-3.2537,0.7901,9.7636
28242.0,-3.213,0.8356,9.754
28252.0,-3.1412,0.8643,9.7612
28262.0,-3.0574,0.8092,9.6247
28272.0,-3.0335,0.8547,9.6726
28282.0,-3.0765,0.7949,9.6774
28292.0,-3.0478,0.7183,9.675
28302.0,-3.134,0.7566,9.6726
28312.0,-3.122,0.747,9.6151
28322.0,-3.201,0.7661,9.73
28332.0,-3.1723,0.7973,9.754
28342.0,-3.1556,0.8188,9.6893
28352.0,-3.043,0.8499,9.7109
28362.0,-3.0095,0.8236,9.4451
28372.0,-3.0526,0.723,9.4858
28382.0,-2.9832,0.723,9.5002
28392.0,-3.0526,0.747,9.6079
28402.0,-3.1508,0.7518,9.6391
28412.0,-3.1771,0.7614,9.6798
28422.0,-3.201,0.7398,9.7755
28432.0,-3.1412,0.7566,9.8426
28442.0,-3.1723,0.7278,9.7923
28452.0,-3.1771,0.7278,9.6989
28462.0,-3.1747,0.7661,9.7324
28472.0,-3.1675,0.7566,9.7899
28482.0,-3.2298,0.8188,9.8378
28492.0,-3.2202,0.8021,9.9671
28502.0,-3.1053,0.8308,9.912
28512.0,-3.0742,0.7542,9.7252
28522.0,-3.0718,0.7207,9.6391
28532.0,-3.0406,0.6584,9.572
28542.0,-3.0574,0.6512,9.6391
28552.0,-3.1244,0.6033,9.6822
28562.0,-3.1436,0.6656,9.8067
28572.0,-3.1675,0.7207,9.7827
28582.0,-3.0933,0.7278,9.8306
28592.0,-3.1125,0.6919,9.7755
28602.0,-3.0813,0.7207,9.7252
28612.0,-3.0694,0.7422,9.6582
28622.0,-3.1532,0.7087,9.6247
28632.0,-3.0502,0.6967,9.7181
28642.0,-3.043,0.735,9.6606
28652.0,-2.9664,0.6895,9.7109
28662.0,-2.9808,0.7183,9.675
28672.0,-3.0574,0.7542,9.6702
28682.0,-3.0742,0.7278,9.754
28692.0,-3.1316,0.7039,9.6007
28702.0,-3.1939,0.6273,9.6965
28712.0,-3.1364,0.68,9.6414
28722.0,-3.1651,0.7183,9.6917
28732.0,-3.043,0.7278,9.6079
28742.0,-3.0694,0.747,9.6175
28752.0,-3.043,0.6919,9.6127
28762.0,-3.0837,0.7063,9.6486
28772.0,-3.067,0.6776,9.675
28782.0,-3.158,0.7135,9.6462
28792.0,-3.1747,0.7111,9.7923
28802.0,-3.1556,0.7278,9.7923
28812.0,-3.2034,0.7111,9.8186
28822.0,-3.2465,0.7207,9.7731
28832.0,-3.1891,0.6991,9.7013
28842.0,-3.0933,0.6943,9.6079
28852.0,-3.0909,0.6871,9.5553
28862.0,-3.1053,0.6967,9.5912
28872.0,-3.0622,0.7997,9.6702
28882.0,-3.1484,0.7901,9.6055
28892.0,-3.122,0.7207,9.6223
28902.0,-3.1532,0.7087,9.7444
28912.0,-3.1819,0.7422,9.8306
28922.0,-3.1603,0.7207,9.7707
28932.0,-3.1699,0.7374,9.8114
28942.0,-3.1771,0.7685,9.7659
28952.0,-3.1651,0.7829,9.6726
28962.0,-3.0622,0.7494,9.6726
28972.0,-3.0909,0.759,9.6702
28982.0,-3.0718,0.7278,9.7755
28992.0,-3.1627,0.7087,9.7492
29002.0,-3.2944,0.68,9.7971
29012.0,-3.3064,0.68,9.8737
29022.0,-3.3112,0.6704,9.8282
29032.0,-3.1556,0.8092,9.821
29042.0,-3.1867,0.7949,9.6869
29052.0,-3.1484,0.7566,9.7109
29062.0,-3.1388,0.7278,9.7875
29072.0,-3.1603,0.826,9.7971
29082.0,-3.1364,0.7326,9.7133
29092.0,-3.1484,0.668,9.7348
29102.0,-3.1388,0.7398,9.6582
29112.0,-3.2058,0.6728,9.6893
29122.0,-3.225,0.6943,9.6965
29132.0,-3.1268,0.7374,9.73
29142.0,-3.043,0.759,9.6127
29152.0,-3.1029,0.7757,9.6845
29162.0,-3.0909,0.7015,9.6151
29172.0,-3.0742,0.7111,9.5648
29182.0,-3.0574,0.7254,9.5984
29192.0,-3.1316,0.723,9.5672
29202.0,-3.134,0.6728,9.5864
29212.0,-3.1125,0.6704,9.742
29222.0,-3.1292,0.6752,9.6534
29232.0,-3.1268,0.735,9.6965
29242.0,-3.1077,0.7111,9.6798
29252.0,-3.1843,0.68,9.7731
29262.0,-3.1364,0.6776,9.6367
29272.0,-3.1053,0.68,9.7252
29282.0,-3.1651,0.6871,9.6247
29292.0,-3.201,0.6105,9.6343
29302.0,-3.1077,0.6656,9.5553
29312.0,-3.2274,0.644,9.6726
29322.0,-3.2082,0.6249,9.7348
29332.0,-3.2561,0.6895,9.9455
29342.0,-3.2896,0.7374,9.7995
29352.0,-3.2681,0.656,9.8545
29362.0,-3.2298,0.6919,9.7636
29372.0,-3.2034,0.6488,9.6917
29382.0,-3.1125,0.6895,9.6534
29392.0,-3.0981,0.6345,9.6367
29402.0,-3.1651,0.6728,9.4978
29412.0,-3.122,0.68,9.5912
29422.0,-3.1675,0.6728,9.7899
29432.0,-3.1412,0.7135,9.8162
29442.0,-3.1939,0.6416,9.833
29452.0,-3.1125,0.6464,9.7157
29462.0,-3.1651,0.6776,9.6654
29472.0,-3.1316,0.656,9.5816
29482.0,-3.1508,0.6895,9.6893
29492.0,-3.1077,0.6704,9.7061
29502.0,-3.1867,0.668,9.7085
29512.0,-3.1939,0.644,9.742
29522.0,-3.201,0.6656,9.8019
29532.0,-3.2082,0.6608,9.7707
29542.0,-3.2513,0.6393,9.6678
29552.0,-3.1484,0.7063,9.6726
29562.0,-3.146,0.7422,9.6893
29572.0,-3.0311,0.8021,9.6055
29582.0,-3.1029,0.723,9.6343
29592.0,-3.158,0.6871,9.5241
29602.0,-3.2513,0.7087,9.5792
29612.0,-3.2777,0.6201,9.73
29622.0,-3.2322,0.6345,9.7636
29632.0,-3.2681,0.6345,9.7013
29642.0,-3.2705,0.7015,9.8234
29652.0,-3.158,0.7135,9.7851
29662.0,-3.1532,0.7135,9.8019
29672.0,-3.1316,0.7183,9.7348
29682.0,-3.0574,0.6823,9.6247
29692.0,-3.1149,0.7111,9.6127
29702.0,-3.0718,0.6871,9.6774
29712.0,-3.1149,0.6943,9.6702
29722.0,-3.1675,0.7015,9.7588
29732.0,-3.2777,0.6871,9.8306
29742.0,-3.2513,0.6704,9.7779
29752.0,-3.1819,0.6704,9.7276
29762.0,-3.1508,0.6704,9.675
29772.0,-3.0742,0.7374,9.4667
29782.0,-3.0358,0.6201,9.4786
29792.0,-3.0047,0.6321,9.3757
29802.0,-3.0861,0.6393,9.5098
29812.0,-3.1675,0.7087,9.5122
29822.0,-3.2034,0.6967,9.6367
29832.0,-3.1771,0.7183,9.6486
29842.0,-3.1651,0.6919,9.7468
29852.0,-3.146,0.7757,9.6798
29862.0,-3.1244,0.735,9.596
29872.0,-3.1987,0.7063,9.6007
29882.0,-3.2274,0.7566,9.5768
29892.0,-3.2825,0.6943,9.6845
29902.0,-3.213,0.8068,9.5696
29912.0,-3.201,0.7446,9.5313
29922.0,-3.1364,0.7973,9.505
29932.0,-3.0694,0.8068,9.6127
29942.0,-3.1268,0.8332,9.5696
29952.0,-3.1388,0.7254,9.6295
29962.0,-3.1723,0.7614,9.7396
29972.0,-3.1987,0.7183,9.6917
29982.0,-3.2633,0.6895,9.7205
29992.0,-3.2657,0.6823,9.7851
30002.0,-3.146,0.7278,9.7348
30012.0,-3.1723,0.7733,9.6462
30022.0,-3.0694,0.7111,9.5912
30032.0,-3.0718,0.6967,9.6055
30042.0,-3.1484,0.6991,9.675
30052.0,-3.1244,0.6656,9.6247
30062.0,-3.2465,0.7111,9.809
30072.0,-3.2417,0.7278,9.8258
30082.0,-3.1891,0.6608,9.7923
30092.0,-3.1843,0.6488,9.7324
30102.0,-3.1388,0.7207,9.6582
30112.0,-3.0742,0.6871,9.6175
30122.0,-3.0454,0.68,9.651
30132.0,-3.0837,0.6943,9.6989
30142.0,-3.1675,0.5962,9.7133
30152.0,-3.1675,0.668,9.6678
30162.0,-3.1939,0.6536,9.7372
30172.0,-3.1771,0.6823,9.7444
30182.0,-3.1723,0.6871,9.809
30192.0,-3.1053,0.6871,9.6462
30202.0,-3.1316,0.6991,9.6534
30212.0,-3.0933,0.6895,9.5696
30222.0,-3.1867,0.723,9.5792
30232.0,-3.2513,0.7039,9.6654
30242.0,-3.1939,0.7302,9.6295
30252.0,-3.1819,0.7446,9.651
30262.0,-3.1795,0.7853,9.6582
30272.0,-3.2346,0.7685,9.6654
30282.0,-3.1891,0.7207,9.7803
30292.0,-3.2896,0.7374,9.7109
30302.0,-3.2465,0.747,9.7971
30312.0,-3.304,0.759,9.6654
30322.0,-3.2322,0.7805,9.6247
30332.0,-3.2082,0.7326,9.5768
30342.0,-3.2394,0.7925,9.6007
30352.0,-3.201,0.7446,9.6271
30362.0,-3.2082,0.7949,9.7085
30372.0,-3.2417,0.7326,9.73
30382.0,-3.2872,0.759,9.7324
30392.0,-3.2417,0.7733,9.7157
30402.0,-3.2585,0.7518,9.6798
30412.0,-3.2633,0.7111,9.6582
30422.0,-3.2202,0.7685,9.754
30432.0,-3.2968,0.7494,9.6199
30442.0,-3.1819,0.7949,9.6893
30452.0,-3.2465,0.7398,9.6845
30462.0,-3.1963,0.6943,9.6558
30472.0,-3.2154,0.644,9.6199
30482.0,-3.1915,0.7183,9.7468
30492.0,-3.2489,0.7614,9.651
30502.0,-3.1603,0.6512,9.6151
30512.0,-3.134,0.7254,9.5672
30522.0,-3.1556,0.6871,9.5864
30532.0,-3.2346,0.7638,9.7348
30542.0,-3.2034,0.7661,9.7109
30552.0,-3.3064,0.759,9.6367
30562.0,-3.2465,0.6991,9.7588
30572.0,-3.2489,0.7135,9.6031
30582.0,-3.2681,0.8092,9.6438
30592.0,-3.1196,0.7949,9.7276
30602.0,-3.1987,0.7207,9.6822
30612.0,-3.2274,0.7542,9.5912
30622.0,-3.1723,0.6776,9.6869
30632.0,-3.1987,0.6823,9.6917
30642.0,-3.2346,0.6297,9.6606
30652.0,-3.2298,0.68,9.7037
30662.0,-3.2872,0.7183,9.5864
30672.0,-3.2489,0.6943,9.6678
30682.0,-3.3112,0.7829,9.7229
30692.0,-3.2657,0.8164,9.6726
30702.0,-3.3519,0.7877,9.675
30712.0,-3.2777,0.7733,9.6989
30722.0,-3.2825,0.7302,9.6343
30732.0,-3.2537,0.7374,9.675
30742.0,-3.2106,0.7518,9.6965
30752.0,-3.2298,0.7446,9.6343
30762.0,-3.1747,0.7805,9.5409
30772.0,-3.2465,0.7542,9.7013
30782.0,-3.225,0.7039,9.7971
30792.0,-3.2394,0.7278,9.7659
30802.0,-3.2202,0.6416,9.7348
30812.0,-3.2609,0.6464,9.5265
30822.0,-3.2537,0.6416,9.5433
30832.0,-3.2609,0.6081,9.5936
30842.0,-3.2944,0.5698,9.7037
30852.0,-3.292,0.5507,9.7779
30862.0,-3.2944,0.5387,9.6199
30872.0,-3.3064,0.5363,9.6726
30882.0,-3.2729,0.5698,9.596
30892.0,-3.3639,0.5794,9.6127
30902.0,-3.3351,0.5722,9.5553
30912.0,-3.3567,0.5818,9.6079
30922.0,-3.3064,0.5698,9.7348
30932.0,-3.3639,0.5938,9.8426
30942.0,-3.3495,0.6057,9.7683
30952.0,-3.3399,0.6177,9.8234
30962.0,-3.2896,0.6177,9.6678
30972.0,-3.2729,0.6704,9.572
30982.0,-3.1867,0.6847,9.6558
30992.0,-3.2441,0.7925,9.5122
31002.0,-3.2274,0.7781,9.6151
31012.0,-3.1556,0.8691,9.6151
31022.0,-3.1771,0.917,9.6798
31032.0,-3.2681,0.9242,9.7588
31042.0,-3.2561,0.905,9.7851
31052.0,-3.2298,0.9361,9.8593
31062.0,-3.2154,0.893,9.6869
31072.0,-3.1173,0.9697,9.6606
31082.0,-3.0885,0.9026,9.584
31092.0,-3.0694,1.0056,9.5361
31102.0,-3.1268,0.9984,9.6295
31112.0,-3.0646,1.0798,9.6726
31122.0,-3.1053,1.0391,9.7133
31132.0,-3.1939,1.0463,9.8569
31142.0,-3.225,1.0487,9.7252
31152.0,-3.2872,0.9768,9.809
31162.0,-3.2274,1.0127,9.73
31172.0,-3.2034,1.0199,9.6822
31182.0,-3.2298,0.9601,9.6079
31192.0,-3.1963,1.0247,9.6175
31202.0,-3.2633,0.9481,9.742
31212.0,-3.3495,0.8859,9.8617
31222.0,-3.3495,0.9361,9.7923
31232.0,-3.3208,0.9146,9.7755
31242.0,-3.2322,0.9098,9.6965
31252.0,-3.1843,0.8906,9.4667
31262.0,-3.1412,0.8595,9.5409
31272.0,-3.1053,0.8739,9.4212
31282.0,-3.146,0.893,9.3925
31292.0,-3.1268,0.7709,9.4547
31302.0,-3.134,0.8188,9.572
31312.0,-3.2729,0.7685,9.6989
31322.0,-3.1556,0.8236,9.6845
31332.0,-3.1532,0.6728,9.6726
31342.0,-3.0095,0.7302,9.6486
31352.0,-2.9305,0.6704,9.6055
31362.0,-2.964,0.5986,9.6582
31372.0,-2.9281,0.6225,9.754
31382.0,-2.9305,0.6081,9.7061
31392.0,-3.0406,0.6033,9.7636
31402.0,-3.1173,0.6393,9.9192
31412.0,-3.2178,0.7087,9.845
31422.0,-3.3088,0.7398,10.0389
31432.0,-3.3232,0.7183,9.8569
31442.0,-3.2825,0.8188,9.7875
31452.0,-3.2513,0.7805,9.7157
31462.0,-3.1843,0.814,9.6558
31472.0,-3.1651,0.8739,9.7037
31482.0,-3.2202,0.8068,9.6917
31492.0,-3.3327,0.8906,9.924
31502.0,-3.4884,0.8667,10.0533
31512.0,-3.5626,0.8428,10.1155
31522.0,-3.3998,0.972,9.9407
31532.0,-3.3974,0.8523,9.8689
31542.0,-3.2082,0.8691,9.6845
31552.0,-3.2944,0.9433,9.5624
31562.0,-3.2346,0.9002,9.5888
31572.0,-3.3136,0.9409,9.5816
31582.0,-3.304,0.8811,9.5696
31592.0,-3.2705,0.8452,9.6414
31602.0,-3.3303,0.8739,9.5792
31612.0,-3.3327,0.8906,9.6007
31622.0,-3.2537,0.8859,9.6798
31632.0,-3.2417,0.838,9.5577
31642.0,-3.225,0.9098,9.5529
31652.0,-3.1747,0.8356,9.5217
31662.0,-3.134,0.8595,9.4595
31672.0,-3.1005,0.8475,9.3757
31682.0,-3.1101,0.8811,9.5098
31692.0,-3.1005,0.8619,9.4739
31702.0,-3.2058,0.8212,9.4643
31712.0,-3.1101,0.838,9.5553
31722.0,-3.146,0.68,9.517
31732.0,-3.2657,0.6991,9.5457
31742.0,-3.2465,0.7111,9.6965
31752.0,-3.1867,0.7422,9.6127
31762.0,-3.1005,0.7757,9.4882
31772.0,-3.0335,0.7685,9.4834
31782.0,-3.0694,0.7135,9.2823
31792.0,-3.0478,0.7183,9.4403
31802.0,-3.1771,0.6608,9.4499
31812.0,-3.1651,0.6656,9.5816
31822.0,-3.2394,0.5962,9.7013
31832.0,-3.2872,0.6057,9.9719
31842.0,-3.2968,0.644,9.8019
31852.0,-3.2585,0.6823,9.9144
31862.0,-3.2082,0.7183,9.7612
31872.0,-3.1077,0.6512,9.651
31882.0,-3.1627,0.7685,9.4547
31892.0,-3.134,0.7374,9.5672
31902.0,-3.0981,0.668,9.6055
31912.0,-3.1173,0.6608,9.6414
31922.0,-3.2441,0.6057,9.7181
31932.0,-3.2848,0.6464,9.9144
31942.0,-3.2417,0.6105,9.7061
31952.0,-3.2513,0.6464,9.6007
31962.0,-3.1867,0.6321,9.6726
31972.0,-3.1436,0.7278,9.6127
31982.0,-3.2298,0.6393,9.5289
31992.0,-3.225,0.6943,9.5792
32002.0,-3.3758,0.6009,9.5098
32012.0,-3.2801,0.6776,9.5122
32022.0,-3.2681,0.6201,9.5409
32032.0,-3.201,0.6919,9.7947
32042.0,-3.1723,0.6919,9.6007
32052.0,-3.2825,0.7087,9.7995
32062.0,-3.2825,0.6345,9.7516
32072.0,-3.3303,0.723,9.6007
32082.0,-3.3662,0.7087,9.6151
32092.0,-3.3279,0.7087,9.7133
32102.0,-3.2106,0.7733,9.5744
32112.0,-3.2274,0.6919,9.6247
32122.0,-3.2944,0.7135,9.505
32132.0,-3.2777,0.7087,9.5122
32142.0,-3.3375,0.6943,9.5768
32152.0,-3.4309,0.6512,9.7803
32162.0,-3.4524,0.6991,9.7947
32172.0,-3.5267,0.7015,9.8186
32182.0,-3.4524,0.7063,9.8785
32192.0,-3.4333,0.747,9.6055
32202.0,-3.3495,0.735,9.6726
32212.0,-3.2633,0.7661,9.4116
32222.0,-3.1819,0.7087,9.5193
32232.0,-3.2657,0.7015,9.5433
32242.0,-3.3064,0.6847,9.572
32252.0,-3.4117,0.7135,9.7181
32262.0,-3.3902,0.6991,9.7636
32272.0,-3.3806,0.7159,9.8354
32282.0,-3.2992,0.7661,9.742
32292.0,-3.3447,0.7997,9.5936
32302.0,-3.2705,0.7901,9.4906
32312.0,-3.3016,0.8475,9.4188
32322.0,-3.3232,0.7566,9.3948
32332.0,-3.3662,0.8068,9.4882
32342.0,-3.2944,0.8045,9.5936
32352.0,-3.3351,0.8499,9.5984
32362.0,-3.3543,0.7901,9.7875
32372.0,-3.3854,0.826,9.7037
32382.0,-3.4093,0.8188,9.6822
32392.0,-3.3878,0.9433,9.651
32402.0,-3.3591,0.8859,9.5529
32412.0,-3.3662,0.8164,9.3805
32422.0,-3.3567,0.8021,9.4332
32432.0,-3.4381,0.759,9.4475
32442.0,-3.4812,0.7781,9.5385
32452.0,-3.4692,0.7877,9.5074
32462.0,-3.4692,0.8404,9.7612
32472.0,-3.5578,0.8212,9.6702
32482.0,-3.5171,0.814,9.7181
32492.0,-3.4117,0.8045,9.4667
32502.0,-3.4261,0.8332,9.4763
32512.0,-3.4333,0.7494,9.4284
32522.0,-3.395,0.7805,9.3733
32532.0,-3.3686,0.7494,9.4092
32542.0,-3.4093,0.7063,9.5409
32552.0,-3.4213,0.7039,9.4786
32562.0,-3.4093,0.6967,9.572
32572.0,-3.3998,0.6584,9.505
32582.0,-3.3878,0.6488,9.5409
32592.0,-3.3088,0.6895,9.3948
32602.0,-3.3016,0.6991,9.426
32612.0,-3.3519,0.7039,9.4882
32622.0,-3.3639,0.7638,9.5624
32632.0,-3.3878,0.8116,9.5744
32642.0,-3.4261,0.8356,9.6199
32652.0,-3.4285,0.7949,9.5457
32662.0,-3.3758,0.7853,9.4355
32672.0,-3.4093,0.8571,9.335
32682.0,-3.4429,0.8308,9.5481
32692.0,-3.553,0.8236,9.6319
32702.0,-3.62,0.8571,9.8282
32712.0,-3.7014,0.8092,9.8545
32722.0,-3.5674,0.8547,9.7779
32732.0,-3.5841,0.7829,9.5193
32742.0,-3.45,0.8499,9.4858
32752.0,-3.4668,0.8643,9.3015
32762.0,-3.4836,0.8523,9.3613
32772.0,-3.5482,0.8188,9.426
32782.0,-3.6248,0.8284,9.7324
32792.0,-3.7541,0.972,9.8976
32802.0,-3.7302,0.7901,9.8282
32812.0,-3.735,0.8164,10.0652
32822.0,-3.6679,0.8212,9.7109
32832.0,-3.7038,0.7949,9.6534
32842.0,-3.6248,0.8021,9.4379
32852.0,-3.4931,0.8595,9.3901
32862.0,-3.5434,0.8404,9.3996
32872.0,-3.5985,0.8475,9.5026
32882.0,-3.6536,0.8882,9.584
32892.0,-3.6607,0.8475,9.651
32902.0,-3.6703,0.8284,9.73
32912.0,-3.62,0.7398,9.6486
32922.0,-3.6105,0.7709,9.5864
32932.0,-3.5626,0.759,9.493
32942.0,-3.5841,0.735,9.4284
32952.0,-3.5219,0.7207,9.3134
32962.0,-3.5051,0.7685,9.4308
32972.0,-3.4069,0.7614,9.4834
32982.0,-3.3878,0.7973,9.4475
32992.0,-3.3806,0.8308,9.4379
33002.0,-3.4764,0.7805,9.3853
33012.0,-3.4548,0.7685,9.3087
33022.0,-3.5434,0.7614,9.3709
33032.0,-3.5434,0.7853,9.4355
33042.0,-3.5721,0.7183,9.5529
33052.0,-3.5123,0.7757,9.5648
33062.0,-3.5554,0.826,9.6654
33072.0,-3.5147,0.8356,9.6582
33082.0,-3.4213,0.8068,9.4834
33092.0,-3.4357,0.723,9.4284
33102.0,-3.4572,0.6752,9.3134
33112.0,-3.5434,0.7015,9.3757
33122.0,-3.5602,0.644,9.4763
33132.0,-3.6176,0.7087,9.5193
33142.0,-3.5841,0.6991,9.5648
33152.0,-3.6559,0.7494,9.5696
33162.0,-3.6536,0.7135,9.584
33172.0,-3.6703,0.8404,9.6127
33182.0,-3.6224,0.8092,9.5792
33192.0,-3.5937,0.7781,9.5672
33202.0,-3.6272,0.8212,9.4763
33212.0,-3.7038,0.7638,9.4619
33222.0,-3.7254,0.838,9.4667
33232.0,-3.79,0.9744,9.6127
33242.0,-3.6751,0.917,9.845
33252.0,-3.6368,0.9768,9.8426
33262.0,-3.5195,0.8954,9.7037
33272.0,-3.4979,0.8284,9.6989
33282.0,-3.5434,0.7901,9.56
33292.0,-3.4788,0.8308,9.5624
33302.0,-3.3998,0.7997,9.5744
33312.0,-3.4836,0.7398,9.5361
33322.0,-3.5195,0.7949,9.6558
33332.0,-3.5386,0.7973,9.6223
33342.0,-3.5745,0.6847,9.8928
33352.0,-3.5602,0.7973,9.8474
33362.0,-3.5291,0.7398,9.9479
33372.0,-3.5171,0.759,9.7612
33382.0,-3.3854,0.7997,9.5289
33392.0,-3.3136,0.8523,9.3182
33402.0,-3.1867,0.7997,9.2249
33412.0,-3.3279,0.8475,9.4308
33422.0,-3.3327,0.838,9.584
33432.0,-3.5171,0.9242,9.7923
33442.0,-3.5745,0.8954,9.8162
33452.0,-3.6033,0.9505,9.8809
33462.0,-3.5506,0.9098,9.73
33472.0,-3.5721,0.8882,9.5816
33482.0,-3.5027,0.7638,9.5361
33492.0,-3.5314,0.7781,9.3182
33502.0,-3.5698,0.7326,9.3589
33512.0,-3.5003,0.7278,9.3182
33522.0,-3.462,0.759,9.4978
33532.0,-3.5267,0.735,9.5313
33542.0,-3.5195,0.723,9.5457
33552.0,-3.4836,0.759,9.4188
33562.0,-3.4357,0.8212,9.4475
33572.0,-3.4405,0.8547,9.256
33582.0,-3.4812,0.8164,9.1315
33592.0,-3.3902,0.8045,9.1578
33602.0,-3.3974,0.8188,9.2656
33612.0,-3.4069,0.7805,9.3278
33622.0,-3.3902,0.6919,9.4068
33632.0,-3.371,0.7159,9.5241
33642.0,-3.4644,0.6919,9.517
33652.0,-3.4429,0.7087,9.6031
33662.0,-3.4022,0.668,9.5553
33672.0,-3.383,0.6393,9.4236
33682.0,-3.2992,0.6536,9.5313
33692.0,-3.2322,0.7302,9.5457
33702.0,-3.2657,0.6919,9.505
33712.0,-3.2848,0.7278,9.5553
33722.0,-3.2848,0.7015,9.4332
33732.0,-3.3471,0.6943,9.5385
33742.0,-3.3327,0.6991,9.4882
33752.0,-3.371,0.7542,9.5074
33762.0,-3.5362,0.6847,9.5337
33772.0,-3.5985,0.7494,9.6223
33782.0,-3.5219,0.7015,9.6606
33792.0,-3.5554,0.6704,9.7827
33802.0,-3.5075,0.8021,9.7276
33812.0,-3.4979,0.7207,9.675
33822.0,-3.4668,0.7326,9.6103
33832.0,-3.4405,0.759,9.4332
33842.0,-3.4309,0.6919,9.4786
33852.0,-3.5817,0.6847,9.5265
33862.0,-3.6248,0.7278,9.6774
33872.0,-3.6751,0.7614,9.7947
33882.0,-3.7469,0.6584,9.845
33892.0,-3.6775,0.6201,9.6774
33902.0,-3.6607,0.5291,9.6271
33912.0,-3.5961,0.6201,9.4547
33922.0,-3.5291,0.6728,9.3446
33932.0,-3.5554,0.5914,9.4475
33942.0,-3.565,0.6249,9.3877
33952.0,-3.6033,0.6393,9.4284
33962.0,-3.5961,0.6105,9.3853
33972.0,-3.6081,0.5435,9.4164
33982.0,-3.6751,0.5842,9.402
33992.0,-3.7014,0.5818,9.4451
34002.0,-3.8331,0.644,9.6606
34012.0,-3.8116,0.6823,9.56
34022.0,-3.8188,0.6536,9.651
34032.0,-3.7014,0.656,9.5864
34042.0,-3.6943,0.6464,9.505
34052.0,-3.6607,0.6943,9.5864
34062.0,-3.7086,0.6656,9.5696
34072.0,-3.711,0.6752,9.5577
34082.0,-3.7781,0.7398,9.5792
34092.0,-3.8571,0.7638,9.6558
34102.0,-3.7924,0.7183,9.6893
34112.0,-3.7469,0.7542,9.7205
34122.0,-3.7158,0.7877,9.7372
34132.0,-3.7541,0.8116,9.6486
34142.0,-3.7709,0.6943,9.651
34152.0,-3.7804,0.7685,9.5768
34162.0,-3.79,0.6991,9.6151
34172.0,-3.7685,0.7254,9.5696
34182.0,-3.7781,0.8164,9.6007
34192.0,-3.7421,0.7542,9.6582
34202.0,-3.7541,0.7925,9.6343
34212.0,-3.7326,0.7398,9.6606
34222.0,-3.7852,0.7494,9.5146
34232.0,-3.8116,0.7159,9.6079
34242.0,-3.6799,0.7542,9.5122
34252.0,-3.632,0.6943,9.4954
34262.0,-3.6416,0.656,9.5002
34272.0,-3.541,0.6656,9.3709
34282.0,-3.5314,0.6273,9.3541
34292.0,-3.6152,0.6776,9.426
34302.0,-3.6224,0.6967,9.4978
34312.0,-3.6105,0.6967,9.6079
34322.0,-3.5745,0.7183,9.7396
34332.0,-3.5841,0.6871,9.7085
34342.0,-3.5386,0.5938,9.6199
34352.0,-3.5602,0.5602,9.4619
34362.0,-3.4884,0.577,9.4643
34372.0,-3.5602,0.6249,9.426
34382.0,-3.4836,0.7446,9.4547
34392.0,-3.4093,0.6895,9.4332
34402.0,-3.3495,0.6249,9.4164
34412.0,-3.292,0.6201,9.5984
34422.0,-3.2657,0.5794,9.6127
34432.0,-3.1244,0.6369,9.5481
34442.0,-2.9951,0.6656,9.4691
34452.0,-2.9521,0.7159,9.268
34462.0,-3.0526,0.7326,9.1506
34472.0,-3.1316,0.7374,9.1866
34482.0,-3.2274,0.7949,9.2249
34492.0,-3.3591,0.7973,9.5026
34502.0,-3.4429,0.723,9.7971
34512.0,-3.4429,0.8715,9.7181
34522.0,-3.4357,0.8859,9.7468
34532.0,-3.2968,0.8954,9.6558
34542.0,-3.2513,0.9266,9.3278
34552.0,-3.1699,0.9864,9.2081
34562.0,-3.1963,0.9433,9.1123
34572.0,-3.201,0.9002,9.1147
34582.0,-3.2705,0.9697,9.2512
34592.0,-3.3567,0.9744,9.3996
34602.0,-3.4692,0.9266,9.4715
34612.0,-3.4764,0.8954,9.505
34622.0,-3.5793,0.9074,9.6534
34632.0,-3.6559,0.826,9.6127
34642.0,-3.7373,0.9481,9.5553
34652.0,-3.7158,0.9194,9.6343
34662.0,-3.5458,0.9888,9.5026
34672.0,-3.5219,0.8811,9.5577
34682.0,-3.5123,0.8188,9.6319
34692.0,-3.5123,0.7805,9.6391
34702.0,-3.541,0.735,9.7229
34712.0,-3.6129,0.7853,9.7037
34722.0,-3.7086,0.7781,9.6534
34732.0,-3.6296,0.826,9.7229
34742.0,-3.5243,0.8835,9.6438
34752.0,-3.5267,0.8404,9.6247
34762.0,-3.4309,0.9601,9.5744
34772.0,-3.3543,0.9218,9.4834
34782.0,-3.3902,0.7973,9.6103
34792.0,-3.541,0.8236,9.651
34802.0,-3.5841,0.7326,9.6941
34812.0,-3.5721,0.8164,9.7636
34822.0,-3.5961,0.838,9.6319
34832.0,-3.6368,0.9218,9.675
34842.0,-3.6296,0.8428,9.7396
34852.0,-3.5171,0.8452,9.6103
34862.0,-3.4931,0.8212,9.5984
34872.0,-3.565,0.8332,9.5074
34882.0,-3.4405,0.7254,9.4667
34892.0,-3.4524,0.7518,9.3374
34902.0,-3.3758,0.7207,9.347
34912.0,-3.3806,0.6776,9.3182
34922.0,-3.4812,0.668,9.2991
34932.0,-3.5027,0.6632,9.6438
34942.0,-3.6464,0.6871,9.6845
34952.0,-3.5985,0.6871,9.7995
34962.0,-3.6272,0.7374,9.8713
34972.0,-3.6081,0.6871,9.6845
34982.0,-3.5314,0.6345,9.6654
34992.0,-3.62,0.6345,9.5864
35002.0,-3.5099,0.6225,9.6007
35012.0,-3.5458,0.5459,9.6726
35022.0,-3.4405,0.5171,9.8186
35032.0,-3.4668,0.5722,9.7803
35042.0,-3.4093,0.6129,9.7779
35052.0,-3.3232,0.6656,9.8234
35062.0,-3.2825,0.68,9.5768
35072.0,-3.4022,0.6608,9.5816
35082.0,-3.4907,0.6057,9.6678
35092.0,-3.6464,0.5339,9.6654
35102.0,-3.7445,0.3926,9.8282
35112.0,-3.7038,0.3879,9.5624
35122.0,-3.6751,0.4046,9.5481
35132.0,-3.5506,0.4166,9.268
35142.0,-3.553,0.407,9.1459
35152.0,-3.6224,0.4118,9.2656
35162.0,-3.62,0.431,9.3302
35172.0,-3.6966,0.486,9.4212
35182.0,-3.7828,0.3759,9.517
35192.0,-3.7685,0.3783,9.6007
35202.0,-3.7781,0.4334,9.7109
35212.0,-3.6943,0.4022,9.845
35222.0,-3.5745,0.3926,9.8569
35232.0,-3.4836,0.4094,10.0221
35242.0,-3.213,0.4142,9.9168
35252.0,-2.9616,0.3639,9.7683
35262.0,-2.8706,0.4932,9.6031
35272.0,-2.8706,0.4932,9.3757
35282.0,-2.9999,0.3974,9.4308
35292.0,-3.2322,0.498,9.6199
35302.0,-3.4357,0.6033,10.1323
35312.0,-3.7038,0.5914,10.4842
35322.0,-3.7158,0.6776,10.7476
35332.0,-3.5913,0.7326,10.2927
35342.0,-3.4381,0.656,10.1778
35352.0,-3.1795,0.7159,9.8258
35362.0,-3.0478,0.7685,9.6055
35372.0,-3.0981,0.7614,9.4427
35382.0,-3.1244,0.9337,9.493
35392.0,-3.3543,0.9266,9.6295
35402.0,-3.3471,1.0247,9.5098
35412.0,-3.4979,0.8499,9.9311
35422.0,-3.5099,0.9529,9.8521
35432.0,-3.6248,0.9481,10.1179
35442.0,-3.6488,1.0271,9.9623
35452.0,-3.5171,1.1085,9.7851
35462.0,-3.5626,0.9864,9.9192
35472.0,-3.4692,0.905,9.7779
35482.0,-3.4093,0.9792,9.6079
35492.0,-3.4596,0.9266,9.73
35502.0,-3.3232,0.9146,9.6414
35512.0,-3.2729,0.826,9.4571
35522.0,-3.2561,0.8021,9.414
35532.0,-3.2753,0.7949,9.4092
35542.0,-3.3471,0.7159,9.5433
35552.0,-3.2657,0.6752,9.6223
35562.0,-3.4022,0.7446,9.8354
35572.0,-3.2561,0.7614,9.8952
35582.0,-3.1771,0.9266,9.8617
35592.0,-3.0813,0.7781,9.6127
35602.0,-2.9808,0.6416,9.3877
35612.0,-2.8706,0.7542,9.1602
35622.0,-2.9616,0.747,9.2464
35632.0,-3.0861,0.8068,9.3733
35642.0,-3.2082,0.6081,9.6702
35652.0,-3.1556,0.5674,9.5984
35662.0,-3.1388,0.5531,9.6845
35672.0,-3.067,0.6033,9.4978
35682.0,-2.9353,0.565,9.2775
35692.0,-2.8826,0.6105,9.1506
35702.0,-2.7677,0.6776,9.1363
35712.0,-2.8371,0.6608,9.2751
35722.0,-2.8132,0.6871,9.3111
35732.0,-2.8826,0.6823,9.4427
35742.0,-2.9329,0.7781,9.3829
35752.0,-2.9161,0.6201,9.1746
35762.0,-2.7294,0.7087,9.1411
35772.0,-2.7342,0.7135,9.1746
35782.0,-2.6408,0.7087,9.1339
35792.0,-2.7438,0.6464,9.2608
35802.0,-2.8635,0.589,9.4619
35812.0,-2.964,0.6249,9.5529
35822.0,-3.0598,0.6488,9.6582
35832.0,-3.1699,0.7614,9.5313
35842.0,-3.0885,0.8284,9.5577
35852.0,-3.2202,0.7853,9.5265
35862.0,-3.1268,0.8116,9.6702
35872.0,-3.146,0.7661,9.6055
35882.0,-3.1987,0.7398,9.7588
35892.0,-3.1675,0.7422,9.8019
35902.0,-3.1005,0.7302,9.7013
35912.0,-3.2106,0.7183,9.6151
35922.0,-3.2394,0.6249,9.6869
35932.0,-3.2537,0.6967,9.5864
35942.0,-3.2657,0.7709,9.7468
35952.0,-3.2896,0.7997,9.7612
35962.0,-3.316,0.7302,9.5936
35972.0,-3.2657,0.7015,9.6438
35982.0,-3.2298,0.6033,9.4284
35992.0,-3.2513,0.5555,9.4595
36002.0,-3.2657,0.5794,9.4212
36012.0,-3.4668,0.5986,9.7061
36022.0,-3.4141,0.6847,9.6917
36032.0,-3.4022,0.7781,9.6007
36042.0,-3.4093,0.7542,9.6941
36052.0,-3.3543,0.7781,9.651
36062.0,-3.2753,0.6345,9.7229
36072.0,-3.2848,0.5794,9.7588
36082.0,-3.2681,0.5411,9.8282
36092.0,-3.3806,0.4669,9.8833
36102.0,-3.3471,0.5435,9.9407
36112.0,-3.2633,0.5076,9.8689
36122.0,-3.1891,0.4788,9.7205
36132.0,-3.2537,0.5219,9.7181
36142.0,-3.225,0.5938,9.6343
36152.0,-3.1963,0.6129,9.5385
36162.0,-3.2777,0.5626,9.6271
36172.0,-3.3399,0.6153,9.7229
36182.0,-3.3662,0.5531,9.8689
36192.0,-3.3662,0.5148,9.9
36202.0,-3.4668,0.51,10.0126
36212.0,-3.4357,0.6201,10.0054
36222.0,-3.213,0.6752,9.7516
36232.0,-3.2154,0.6393,9.6031
36242.0,-3.0742,0.7398,9.3134
36252.0,-3.0119,0.6704,9.1985
36262.0,-3.1316,0.6369,9.4164
36272.0,-3.1939,0.656,9.5577
36282.0,-3.1987,0.6847,9.6893
36292.0,-3.1603,0.5674,9.809
36302.0,-3.3064,0.5315,9.7157
36312.0,-3.3184,0.5195,9.7468
36322.0,-3.3279,0.6201,9.754
36332.0,-3.304,0.5195,9.6127
36342.0,-3.2489,0.5698,9.5624
36352.0,-3.1388,0.6081,9.5385
36362.0,-3.0909,0.6105,9.3805
36372.0,-3.1316,0.6177,9.5313
36382.0,-3.055,0.644,9.6295
36392.0,-3.0813,0.6201,9.5337
36402.0,-3.2465,0.5148,9.5936
36412.0,-3.3519,0.5866,9.5146
36422.0,-3.383,0.6895,9.6774
36432.0,-3.4117,0.6416,9.6893
36442.0,-3.4357,0.6273,9.7564
36452.0,-3.3662,0.6704,9.7516
36462.0,-3.2968,0.6776,9.572
36472.0,-3.1795,0.644,9.5792
36482.0,-3.2537,0.668,9.5146
36492.0,-3.2825,0.6608,9.6319
36502.0,-3.2441,0.7781,9.7755
36512.0,-3.2944,0.7973,9.7492
36522.0,-3.2394,0.8356,9.8976
36532.0,-3.3447,0.7877,9.9168
36542.0,-3.4309,0.7685,9.8138
36552.0,-3.3232,0.7901,9.8521
36562.0,-3.2968,0.759,9.73
36572.0,-3.2106,0.7901,9.5936
36582.0,-3.2681,0.8284,9.7037
36592.0,-3.2705,0.8835,9.6678
36602.0,-3.2561,0.8428,9.663
36612.0,-3.1795,0.8571,9.6845
36622.0,-3.2992,0.8595,9.6893
36632.0,-3.304,0.826,9.754
36642.0,-3.2944,0.8859,9.7851
36652.0,-3.3112,0.8643,9.7612
36662.0,-3.2082,0.8739,9.7779
36672.0,-3.237,0.8787,9.8234
36682.0,-3.2082,0.8332,9.6798
36692.0,-3.1627,0.7949,9.7205
36702.0,-3.1651,0.8068,9.6774
36712.0,-3.1029,0.7494,9.7037
36722.0,-3.146,0.7566,9.6534
36732.0,-3.1627,0.7278,9.6678
36742.0,-3.2106,0.7111,9.7683
36752.0,-3.2825,0.6225,9.6702
36762.0,-3.3639,0.6321,9.7492
36772.0,-3.3184,0.5411,9.7037
36782.0,-3.2585,0.5531,9.7013
36792.0,-3.292,0.656,9.7205
36802.0,-3.2202,0.6249,9.6606
36812.0,-3.2441,0.5842,9.4954
36822.0,-3.1532,0.5195,9.402
36832.0,-3.122,0.4573,9.2871
36842.0,-3.1915,0.407,9.4164
36852.0,-3.1915,0.5531,9.505
36862.0,-3.2753,0.5219,9.6271
36872.0,-3.3184,0.5746,9.6247
36882.0,-3.2896,0.5626,9.6845
36892.0,-3.3016,0.486,9.6965
36902.0,-3.3255,0.4405,9.651
36912.0,-3.3591,0.3974,9.5768
36922.0,-3.3734,0.4381,9.505
36932.0,-3.2896,0.486,9.6367
36942.0,-3.2585,0.4956,9.6774
36952.0,-3.2729,0.498,9.7588
36962.0,-3.2034,0.5674,9.5457
36972.0,-3.2441,0.589,9.6534
36982.0,-3.3279,0.5387,9.6462
36992.0,-3.4788,0.4956,9.5577
37002.0,-3.6129,0.4908,9.7468
37012.0,-3.6392,0.5243,9.7707
37022.0,-3.4884,0.5722,9.8282
37032.0,-3.4764,0.5842,9.7109
37042.0,-3.4524,0.4884,9.5672
37052.0,-3.213,0.4693,9.5481
37062.0,-3.1101,0.4884,9.4882
37072.0,-3.0502,0.4717,9.5385
37082.0,-3.0981,0.4812,9.6055
37092.0,-3.0646,0.4884,9.5337
37102.0,-3.1292,0.4884,9.4667
37112.0,-3.0742,0.5148,9.5744
37122.0,-3.213,0.5578,9.6726
37132.0,-3.2585,0.6081,9.8904
37142.0,-3.3064,0.6321,9.7612
37152.0,-3.3591,0.6009,9.7588
37162.0,-3.3112,0.5866,9.6869
37172.0,-3.3758,0.5411,9.6127
37182.0,-3.4548,0.5938,9.5768
37192.0,-3.3016,0.6081,9.4786
37202.0,-3.371,0.6273,9.5289
37212.0,-3.2082,0.6105,9.414
37222.0,-3.4189,0.5459,9.5624
37232.0,-3.3327,0.5531,9.5361
37242.0,-3.2848,0.498,9.6151
37252.0,-3.3375,0.51,9.7181
37262.0,-3.3567,0.4549,9.6893
37272.0,-3.45,0.4741,9.6271
37282.0,-3.4572,0.4764,9.6223
37292.0,-3.553,0.4357,9.7396
37302.0,-3.5793,0.486,9.8952
37312.0,-3.5075,0.5243,9.8761
37322.0,-3.4764,0.6081,9.8641
37332.0,-3.3279,0.5938,9.7181
37342.0,-3.2034,0.6225,9.56
37352.0,-3.1747,0.6393,9.426
37362.0,-3.2154,0.6584,9.4763
37372.0,-3.2705,0.6632,9.5098
37382.0,-3.3064,0.7302,9.5074
37392.0,-3.3974,0.6776,9.7372
37402.0,-3.5362,0.6369,9.5888
37412.0,-3.4596,0.6895,9.6031
37422.0,-3.5123,0.6847,9.4092
37432.0,-3.4405,0.6512,9.4308
37442.0,-3.4548,0.6919,9.4427
37452.0,-3.4764,0.6704,9.4403
37462.0,-3.4117,0.7326,9.4164
37472.0,-3.3639,0.7159,9.4858
37482.0,-3.3016,0.6895,9.4499
37492.0,-3.2848,0.6967,9.3494
37502.0,-3.3232,0.6943,9.177
37512.0,-3.2729,0.7326,9.2488
37522.0,-3.3232,0.7039,9.335
37532.0,-3.2705,0.7949,9.4954
37542.0,-3.3686,0.7446,9.5385
37552.0,-3.2537,0.6776,9.4212
37562.0,-3.2729,0.7135,9.6606
37572.0,-3.2633,0.6823,9.5433
37582.0,-3.395,0.6057,9.5122
37592.0,-3.4357,0.6991,9.5313
37602.0,-3.371,0.6704,9.5792
37612.0,-3.4022,0.7183,9.6319
37622.0,-3.3782,0.6847,9.6247
37632.0,-3.3112,0.8188,9.5553
37642.0,-3.237,0.826,9.4643
37652.0,-3.1747,0.7446,9.6007
37662.0,-3.2777,0.6823,9.6414
37672.0,-3.3567,0.7877,9.6271
37682.0,-3.4955,0.7398,9.7899
37692.0,-3.4907,0.7614,9.7229
37702.0,-3.5267,0.7398,9.809
37712.0,-3.4524,0.7494,9.8569
37722.0,-3.4429,0.7135,9.8282
37732.0,-3.395,0.7829,9.6965
37742.0,-3.3686,0.7518,9.5984
37752.0,-3.4213,0.7685,9.5385
37762.0,-3.4572,0.7757,9.4858
37772.0,-3.4884,0.7781,9.6031
37782.0,-3.5578,0.8092,9.7324
37792.0,-3.5674,0.8428,9.8378
37802.0,-3.5674,0.9266,9.912
37812.0,-3.4836,0.8954,9.7468
37822.0,-3.3591,0.9074,9.6055
37832.0,-3.3064,0.9122,9.5433
37842.0,-3.2896,0.8978,9.481
37852.0,-3.3112,0.8882,9.4786
37862.0,-3.4548,0.9242,9.6462
37872.0,-3.4165,0.9505,9.6965
37882.0,-3.3926,0.8835,9.6845
37892.0,-3.4285,0.838,9.7085
37902.0,-3.4524,0.917,9.5409
37912.0,-3.4596,0.9457,9.6199
37922.0,-3.4453,0.8284,9.7133
37932.0,-3.4453,0.9242,9.6103
37942.0,-3.3782,0.8811,9.6343
37952.0,-3.3926,0.8404,9.5074
37962.0,-3.4979,0.7757,9.5146
37972.0,-3.5051,0.7398,9.6726
37982.0,-3.5314,0.7757,9.6965
37992.0,-3.5961,0.8164,9.596
38002.0,-3.5793,0.7781,9.6534
38012.0,-3.462,0.7278,9.5864
38022.0,-3.4979,0.6895,9.5768
38032.0,-3.4405,0.68,9.5696
38042.0,-3.4453,0.7757,9.5864
38052.0,-3.4572,0.8068,9.651
38062.0,-3.3782,0.8691,9.4978
38072.0,-3.4548,0.8404,9.5122
38082.0,-3.371,0.8691,9.4068
38092.0,-3.4237,0.8021,9.5864
38102.0,-3.4381,0.8164,9.6391
38112.0,-3.4524,0.7638,9.651
38122.0,-3.4453,0.7973,9.5409
38132.0,-3.4237,0.6656,9.4882
38142.0,-3.4022,0.7374,9.5074
38152.0,-3.3615,0.7446,9.4954
38162.0,-3.371,0.759,9.5529
38172.0,-3.3399,0.7901,9.4188
38182.0,-3.2537,0.8882,9.4619
38192.0,-3.2777,0.7877,9.5936
38202.0,-3.3423,0.7087,9.572
38212.0,-3.3926,0.7614,9.6223
38222.0,-3.462,0.814,9.572
38232.0,-3.5362,0.7877,9.6271
38242.0,-3.5171,0.8356,9.5696
38252.0,-3.5554,0.8236,9.584
38262.0,-3.5075,0.7973,9.572
38272.0,-3.3615,0.7925,9.5936
38282.0,-3.3662,0.7901,9.5313
38292.0,-3.4309,0.7518,9.5193
38302.0,-3.4261,0.8547,9.6151
38312.0,-3.4548,0.6967,9.6271
38322.0,-3.4955,0.7877,9.5912
38332.0,-3.462,0.7949,9.6151
38342.0,-3.4022,0.7398,9.6031
38352.0,-3.4333,0.6895,9.6822
38362.0,-3.4285,0.7278,9.5481
38372.0,-3.4309,0.6919,9.5553
38382.0,-3.4237,0.6991,9.481
38392.0,-3.3902,0.735,9.505
38402.0,-3.3327,0.7781,9.5265
38412.0,-3.3088,0.8116,9.6175
38422.0,-3.4357,0.8212,9.5481
38432.0,-3.3758,0.7733,9.56
38442.0,-3.4836,0.7973,9.6678
38452.0,-3.5243,0.8188,9.6295
38462.0,-3.5003,0.8236,9.7133
38472.0,-3.5003,0.759,9.6702
38482.0,-3.4668,0.7422,9.7923
38492.0,-3.4477,0.7685,9.7013
38502.0,-3.3591,0.7925,9.7205
38512.0,-3.3519,0.7709,9.6438
38522.0,-3.2872,0.8284,9.6367
38532.0,-3.3639,0.8164,9.426
38542.0,-3.2848,0.7374,9.4954
38552.0,-3.3399,0.7111,9.4978
38562.0,-3.3064,0.7254,9.5672
38572.0,-3.4907,0.7781,9.651
38582.0,-3.5075,0.7422,9.6295
38592.0,-3.6464,0.7278,9.7875
38602.0,-3.5506,0.7207,9.924
38612.0,-3.5362,0.7614,9.7276
38622.0,-3.4524,0.7638,9.7252
38632.0,-3.4117,0.8428,9.5409
38642.0,-3.3758,0.7781,9.4786
38652.0,-3.395,0.7494,9.4236
38662.0,-3.4477,0.7709,9.5984
38672.0,-3.3974,0.6847,9.5912
38682.0,-3.3471,0.7446,9.6007
38692.0,-3.3471,0.723,9.5098
38702.0,-3.3303,0.7757,9.651
38712.0,-3.3639,0.7685,9.6295
38722.0,-3.4309,0.7661,9.7085
38732.0,-3.4237,0.7661,9.8258
38742.0,-3.5075,0.8164,9.9742
38752.0,-3.4668,0.8284,9.9335
38762.0,-3.4189,0.7757,9.833
38772.0,-3.3854,0.7446,9.7396
38782.0,-3.2465,0.8092,9.5457
38792.0,-3.1963,0.7853,9.4116
38802.0,-3.1771,0.8092,9.3589
38812.0,-3.146,0.6776,9.2751
38822.0,-3.2537,0.7207,9.3565
38832.0,-3.3758,0.7829,9.481
38842.0,-3.4572,0.7159,9.6414
38852.0,-3.541,0.7302,9.6893
38862.0,-3.5291,0.6991,9.7109
38872.0,-3.5314,0.7518,9.6798
38882.0,-3.4596,0.7853,9.6079
38892.0,-3.4189,0.7638,9.5529
38902.0,-3.2801,0.7638,9.4451
38912.0,-3.2202,0.7709,9.4427
38922.0,-3.2178,0.7015,9.3901
38932.0,-3.3112,0.7494,9.4523
38942.0,-3.3399,0.6584,9.5217
38952.0,-3.4764,0.6991,9.5888
