timestamp_ms,ax,ay,az
10182.0,-3.3758,1.6137,9.8569
10192.0,-3.4141,1.6185,9.3685
10202.0,-3.2872,1.6281,8.928
10212.0,-3.3639,1.2522,8.7724
10222.0,-3.5314,1.549,9.0142
10232.0,-3.7613,1.3599,9.7276
10242.0,-3.8451,1.1923,9.9024
10252.0,-3.5961,1.245,9.8833
10262.0,-3.3399,1.1372,9.5768
10272.0,-3.225,0.9816,9.2895
10282.0,-3.225,0.8978,9.1937
10292.0,-3.2058,0.838,9.2225
10302.0,-3.1556,0.8882,9.323
10312.0,-3.0406,0.893,9.2057
10322.0,-2.9664,0.9505,9.2009
10332.0,-3.1005,0.826,9.2799
10342.0,-3.1603,0.8332,9.0333
10352.0,-3.2801,0.9649,8.9711
10362.0,-3.3758,1.075,9.0333
10372.0,-3.5362,1.1181,9.0644
10382.0,-3.8738,1.1013,9.3278
10392.0,-4.3718,1.1181,9.9024
10402.0,-4.5274,1.142,10.3382
10412.0,-4.2306,1.2402,10.331
10422.0,-3.7733,1.4078,10.0126
10432.0,-3.3112,1.6017,9.5696
10442.0,-2.9066,1.6783,9.1051
10452.0,-2.7653,1.5874,8.7676
10462.0,-3.0382,1.5036,8.9376
10472.0,-3.2274,1.6903,9.2201
10482.0,-3.4357,1.6927,9.8043
10492.0,-3.6727,1.7119,10.2113
10502.0,-3.6943,1.6113,10.4866
10512.0,-3.6631,1.494,10.5393
10522.0,-3.5027,1.2881,10.3358
10532.0,-3.2777,1.2306,10.2208
10542.0,-3.0239,1.3216,10.1035
10552.0,-2.9784,1.2641,9.6151
10562.0,-2.8946,1.3455,9.4308
10572.0,-2.885,1.3479,9.2967
10582.0,-2.9209,1.2713,9.4284
10592.0,-2.9712,1.2163,9.7468
10602.0,-3.2729,1.0606,10.1562
10612.0,-3.395,0.984,10.3358
10622.0,-3.6152,0.8811,10.5297
10632.0,-3.5458,0.9577,10.2352
10642.0,-3.4237,1.0032,10.0628
10652.0,-3.5745,0.8571,9.6798
10662.0,-3.3447,0.7254,9.2895
10672.0,-3.237,0.68,9.232
10682.0,-3.5291,0.6153,9.2991
10692.0,-3.9768,0.6536,10.0509
10702.0,-3.9672,0.7207,10.0916
10712.0,-4.1899,1.0032,10.7667
10722.0,-4.0582,0.8715,10.8793
10732.0,-3.6368,0.7949,10.9391
10742.0,-3.3854,0.8236,10.5776
10752.0,-3.4405,0.9481,9.6822
10762.0,-3.5913,0.8739,8.667
10772.0,-3.7445,0.8332,8.3222
10782.0,-4.5226,0.6823,8.7436
10792.0,-5.296,0.6321,9.4068
10802.0,-5.5522,0.9625,10.1514
10812.0,-5.4588,1.0942,10.5082
10822.0,-5.3271,1.2641,10.9367
10832.0,-4.9847,1.3599,10.8697
10842.0,-4.6639,1.245,10.8386
10852.0,-3.9313,1.1756,10.1969
10862.0,-3.1412,1.1516,9.4451
10872.0,-2.5762,1.1444,8.7747
10882.0,-2.332,1.0391,8.0709
10892.0,-2.3104,1.2139,7.7907
10902.0,-2.6432,1.4054,7.8745
10912.0,-3.0574,1.4533,8.1499
10922.0,-3.6512,1.5227,8.8825
10932.0,-4.0654,1.3982,9.3948
10942.0,-4.5873,1.2354,10.0126
10952.0,-4.6424,1.008,10.2951
10962.0,-4.4077,1.0056,10.1347
10972.0,-4.0079,0.7398,9.7923
10982.0,-3.6512,0.6153,9.4882
10992.0,-3.2633,0.498,8.9399
11002.0,-3.2465,0.3687,9.0142
11012.0,-2.9951,0.3496,8.6479
11022.0,-2.9521,0.3065,8.6814
11032.0,-3.0023,0.2945,8.8729
11042.0,-3.2106,0.4477,9.2153
11052.0,-3.2202,0.6009,9.5816
11062.0,-3.0646,0.6057,9.754
11072.0,-2.818,0.5267,9.7372
11082.0,-2.5786,0.6033,9.5409
11092.0,-2.4517,0.5267,9.3709
11102.0,-2.4588,0.4046,9.1195
11112.0,-2.6384,0.3304,9.2296
11122.0,-2.8491,0.4046,9.2608
11132.0,-2.9377,0.4788,9.4882
11142.0,-3.0406,0.5818,9.6774
11152.0,-3.055,0.5435,10.1442
11162.0,-3.1556,0.4669,10.2328
11172.0,-3.292,0.1987,10.4842
11182.0,-3.5219,0.1149,10.3094
11192.0,-3.814,-0.0527,10.2232
11202.0,-4.2353,-0.3208,10.0533
11212.0,-3.9959,-0.0694,9.9288
11222.0,-3.7852,0.1053,9.833
11232.0,-3.8283,0.2658,10.1035
11242.0,-3.9768,0.2538,10.5034
11252.0,-4.0701,0.1293,11.0205
11262.0,-3.8379,0.0,11.1306
11272.0,-3.5913,0.0718,10.7332
11282.0,-2.6815,0.1724,9.9671
11292.0,-2.4804,0.3424,9.5672
11302.0,-2.3391,0.5818,8.9974
11312.0,-2.3487,0.5842,8.9902
11322.0,-3.1268,0.6273,8.7676
11332.0,-4.0534,0.7709,8.9902
11342.0,-4.9297,0.5818,9.5098
11352.0,-5.3917,0.419,10.1969
11362.0,-5.3486,0.5052,10.2927
11372.0,-4.6448,0.4501,10.2999
11382.0,-3.7134,0.6584,10.1131
11392.0,-2.7749,0.905,9.9431
11402.0,-1.9082,0.9816,9.4355
11412.0,-1.5514,0.9864,8.9854
11422.0,-2.1165,0.68,9.0621
11432.0,-3.2441,0.3903,9.323
11442.0,-4.1228,0.2251,9.4092
11452.0,-4.6998,0.0599,9.5241
11462.0,-4.8626,0.0646,9.5577
11472.0,-4.4604,0.1197,9.2895
11482.0,-3.8571,0.2155,9.1123
11492.0,-3.4309,0.1915,8.9423
11502.0,-3.1508,0.2538,8.7508
11512.0,-2.9521,0.2753,8.7412
11522.0,-2.9042,0.2107,8.8562
11532.0,-2.976,0.4118,8.6622
11542.0,-3.0095,0.4956,8.4851
11552.0,-2.9592,0.5674,8.6431
11562.0,-2.7964,0.6153,8.5234
11572.0,-3.1603,0.6512,9.2249
11582.0,-2.7892,0.7709,8.7077
11592.0,-2.8228,0.6943,9.1842
11602.0,-2.6719,0.7877,8.9926
11612.0,-2.6767,0.8045,8.9854
11622.0,-2.9497,0.7638,9.4643
11632.0,-2.8539,0.9074,9.3781
11642.0,-2.8611,0.8188,9.3948
11652.0,-2.7246,0.9744,9.4643
11662.0,-3.3279,0.7614,9.4212
11672.0,-2.6767,0.8835,9.7133
11682.0,-2.1668,1.1971,9.9647
11692.0,-2.1261,1.403,10.0916
11702.0,-2.466,1.3791,10.1993
11712.0,-2.7629,1.2378,10.4531
11722.0,-2.9616,1.154,10.307
11732.0,-3.2394,1.1899,10.5728
11742.0,-3.3926,1.3168,10.8338
11752.0,-3.3375,1.6568,11.1211
11762.0,-3.4237,1.8555,11.4802
11772.0,-3.4836,1.9178,11.564
11782.0,-3.2753,1.7573,11.5305
11792.0,-2.6217,1.7142,11.2192
11802.0,-2.2027,1.7861,10.4794
11812.0,-2.3655,1.7382,9.6845
11822.0,-2.715,1.5323,9.1028
11832.0,-3.6416,1.2809,9.0836
11842.0,-5.0422,1.0439,9.5529
11852.0,-6.4045,0.9984,10.319
11862.0,-7.0102,1.1588,11.0828
11872.0,-6.5649,1.47,11.7771
11882.0,-5.4708,1.6352,11.5831
11892.0,-4.5226,1.8866,10.9535
11902.0,-3.7661,1.5921,9.9311
11912.0,-3.043,1.6496,8.9208
11922.0,-1.8028,1.6544,7.1826
11932.0,-1.5706,1.4485,6.8546
11942.0,-2.0255,1.4892,7.5034
11952.0,-2.4852,1.4389,7.7117
11962.0,-3.1125,1.4102,8.5258
11972.0,-3.7589,1.3838,9.244
11982.0,-4.2569,1.3479,9.8138
11992.0,-4.6017,1.3096,10.1586
12002.0,-4.6471,1.3048,10.0149
12012.0,-4.4676,1.3384,9.7157
12022.0,-4.1851,1.2641,9.3972
12032.0,-3.8403,1.0199,9.0812
12042.0,-3.462,0.9242,8.9735
12052.0,-3.3974,0.7254,8.8562
12062.0,-3.2298,0.6823,8.7388
12072.0,-3.1819,0.826,8.7915
12082.0,-3.2537,0.7302,9.0142
12092.0,-3.2465,0.6536,9.0405
12102.0,-3.3878,0.6632,9.2344
12112.0,-3.2465,0.5986,9.3589
12122.0,-3.0861,0.6369,9.3398
12132.0,-2.9616,0.6656,8.9807
12142.0,-2.9329,0.747,8.8897
12152.0,-2.818,0.826,8.7125
12162.0,-2.9209,0.7733,8.7915
12172.0,-3.2417,0.7015,9.0692
12182.0,-3.5171,0.6297,9.4858
12192.0,-3.6607,0.6033,9.845
12202.0,-3.7781,0.6919,10.1107
12212.0,-3.8259,0.6105,10.331
12222.0,-3.9049,0.6249,10.5752
12232.0,-3.9385,0.5602,10.5058
12242.0,-3.9959,0.5219,10.1634
12252.0,-3.9385,0.5674,10.0533
12262.0,-4.0247,0.5962,10.0533
12272.0,-4.1061,0.4932,10.0341
12282.0,-4.1515,0.5339,10.0963
12292.0,-4.4556,0.3759,10.4555
12302.0,-4.2497,0.3089,10.5967
12312.0,-3.6248,0.3112,10.5704
12322.0,-3.7996,0.1245,10.0868
12332.0,-4.2329,0.0982,9.6055
12342.0,-4.2904,0.2634,9.4978
12352.0,-4.5849,0.3041,9.3757
12362.0,-4.8746,0.2897,9.177
12372.0,-5.2529,0.2969,9.3087
12382.0,-5.4468,0.3711,9.4092
12392.0,-5.5258,0.2682,9.7995
12402.0,-5.1906,0.2753,10.1394
12412.0,-4.3934,0.2921,10.003
12422.0,-3.7972,0.2945,10.3142
12432.0,-2.7342,0.3711,9.2081
12442.0,-2.1356,0.1341,8.2193
12452.0,-1.9968,0.0718,7.4029
12462.0,-2.0375,-0.158,7.2018
12472.0,-2.4134,-0.1891,7.4962
12482.0,-2.9329,-0.158,8.4348
12492.0,-3.3734,-0.1149,9.1315
12502.0,-3.6536,-0.0455,9.7851
12512.0,-3.8116,0.0934,9.8761
12522.0,-3.7757,0.1317,10.0509
12532.0,-3.7972,0.0575,9.7827
12542.0,-3.8762,0.1077,9.6462
12552.0,-3.4788,0.4405,9.1219
12562.0,-2.9113,0.735,8.6191
12572.0,-2.6815,0.9529,8.3725
12582.0,-2.4277,0.9816,8.1139
12592.0,-2.2721,1.1037,8.1882
12602.0,-2.4301,1.0367,8.5258
12612.0,-2.7366,0.8906,8.9687
12622.0,-2.794,1.0439,9.153
12632.0,-2.7366,1.0894,9.2201
12642.0,-2.5594,1.154,9.3805
12652.0,-2.3176,1.1349,9.2464
12662.0,-2.138,1.1564,8.8202
12672.0,-1.9968,1.1325,8.4348
12682.0,-2.1835,0.9697,8.6838
12692.0,-2.5211,0.9026,9.0764
12702.0,-2.8108,0.9792,9.7612
12712.0,-3.2034,1.1372,10.2807
12722.0,-3.1891,1.1013,10.5441
12732.0,-3.1651,1.1516,10.8769
12742.0,-3.1364,1.0942,10.7452
12752.0,-3.3184,1.0511,10.6111
12762.0,-3.304,1.0319,10.5058
12772.0,-3.3184,1.0295,10.5369
12782.0,-3.2848,1.1253,10.5393
12792.0,-3.5291,1.2522,10.7428
12802.0,-3.6823,1.2641,11.0325
12812.0,-3.6966,1.2953,11.2025
12822.0,-3.2465,1.4317,11.6191
12832.0,-3.2777,1.4389,11.3701
12842.0,-3.7565,1.5203,11.2671
12852.0,-3.7804,1.482,11.2192
12862.0,-4.0606,1.2905,11.3174
12872.0,-4.5825,1.1085,11.1259
12882.0,-5.102,0.9744,10.7212
12892.0,-5.3534,0.7494,10.6111
12902.0,-5.2744,0.8068,10.1466
12912.0,-5.047,0.6584,9.9742
12922.0,-4.8818,0.6369,10.0509
12932.0,-4.628,0.8523,10.1418
12942.0,-4.0223,1.2043,10.07
12952.0,-3.1627,1.4724,9.7971
12962.0,-2.32,1.4269,8.8849
12972.0,-2.0016,1.3455,8.248
12982.0,-1.8675,1.2809,7.5609
12992.0,-1.9249,1.312,7.3358
13002.0,-2.6504,1.1947,7.7883
13012.0,-3.2633,1.1923,8.4587
13022.0,-3.9744,1.3838,9.3541
13032.0,-4.2665,1.4174,9.8545
13042.0,-4.5346,1.3408,10.1969
13052.0,-4.3431,1.1708,10.2927
13062.0,-3.9576,1.0822,9.9647
13072.0,-3.5099,1.0199,9.2727
13082.0,-3.2801,0.8284,8.8681
13092.0,-3.146,0.7015,8.2432
13102.0,-3.1963,0.6273,8.1547
13112.0,-3.1891,0.6752,8.1834
13122.0,-3.3495,0.6345,8.5665
13132.0,-3.6607,0.577,9.1459
13142.0,-3.6775,0.565,9.4044
13152.0,-3.4692,0.6847,9.4284
13162.0,-3.3591,0.7494,9.2296
13172.0,-3.0215,0.7757,8.8274
13182.0,-2.7605,0.7638,8.3917
13192.0,-2.6528,0.759,8.0302
13202.0,-2.6911,0.6393,8.0302
13212.0,-2.8778,0.5602,8.4707
13222.0,-3.0646,0.577,8.8107
13232.0,-3.122,0.6201,9.153
13242.0,-3.2441,0.6225,9.3901
13252.0,-3.4596,0.6105,9.6127
13262.0,-3.7709,0.5962,10.0892
13272.0,-3.7613,0.6129,10.2735
13282.0,-3.7972,0.7494,10.2089
13292.0,-3.8188,0.6033,10.2208
13302.0,-3.735,0.5531,10.1658
13312.0,-3.7541,0.6057,10.1945
13322.0,-3.8235,0.6009,10.2711
13332.0,-3.9624,0.3926,10.4196
13342.0,-3.7326,0.5315,10.3094
13352.0,-3.4189,0.6895,10.1945
13362.0,-3.6129,0.7781,10.0293
13372.0,-3.6799,0.9577,9.8114
13382.0,-3.6703,1.0415,9.9455
13392.0,-3.8595,0.9361,9.8043
13402.0,-4.4197,0.6584,10.1011
13412.0,-4.9823,0.7087,9.6007
13422.0,-5.4612,0.4836,10.3262
13432.0,-5.5522,0.3256,10.4483
13442.0,-5.2505,0.3974,10.4962
13452.0,-4.5562,0.4405,10.2256
13462.0,-3.8331,0.4669,9.7971
13472.0,-3.0454,0.5291,9.323
13482.0,-2.3487,0.6656,8.904
13492.0,-1.9609,0.6608,8.6239
13502.0,-1.9441,0.5626,8.3653
13512.0,-2.2865,0.5124,8.497
13522.0,-2.8084,0.4334,8.9064
13532.0,-3.316,0.3519,9.1578
13542.0,-3.893,0.4812,9.5002
13552.0,-4.197,0.6728,9.9695
13562.0,-4.3814,0.7973,10.1706
13572.0,-4.3191,0.6488,10.2304
13582.0,-4.2593,0.6464,9.9647
13592.0,-3.9433,0.7159,9.5816
13602.0,-3.6823,0.826,9.1794
13612.0,-3.4979,0.8906,8.9112
13622.0,-3.2872,0.9888,8.7125
13632.0,-3.2034,1.1684,8.7149
13642.0,-3.2753,1.2929,8.825
13652.0,-3.2465,1.403,9.1195
13662.0,-3.2298,1.5826,9.2249
13672.0,-3.2801,1.652,9.4403
13682.0,-3.1939,1.7238,9.4954
13692.0,-3.1388,1.6688,9.6175
13702.0,-3.1125,1.5586,9.2416
13712.0,-3.1508,1.5419,9.1435
13722.0,-3.0909,1.5395,9.1842
13732.0,-3.0694,1.4748,9.2368
13742.0,-3.2681,1.3216,9.4523
13752.0,-3.5745,1.3743,10.0269
13762.0,-3.7182,1.3719,10.4603
13772.0,-3.7326,1.4892,10.7021
13782.0,-3.7733,1.5251,11.0229
13792.0,-3.8283,1.4772,10.9774
13802.0,-3.7972,1.5131,10.7955
13812.0,-3.6943,1.5538,10.5943
13822.0,-3.5458,1.7071,10.3262
13832.0,-3.4165,1.7142,10.2951
13842.0,-3.4453,1.8004,10.1394
13852.0,-3.4692,1.9106,10.2951
13862.0,-3.2681,2.0375,10.3932
13872.0,-3.0813,1.9632,10.3789
13882.0,-2.9568,1.822,10.2663
13892.0,-2.6767,1.7382,9.7252
13902.0,-2.5953,1.5945,9.3063
13912.0,-2.7054,1.4892,9.1315
13922.0,-3.2561,1.2761,9.2057
13932.0,-4.1587,0.8954,9.3877
13942.0,-5.0446,0.9098,9.9862
13952.0,-5.5091,1.1181,10.5393
13962.0,-5.3175,1.415,10.7931
13972.0,-4.9704,1.3671,10.8721
13982.0,-4.4005,1.3862,10.1155
13992.0,-3.5075,1.5562,9.3637
14002.0,-2.5379,1.6448,8.078
14012.0,-1.9249,1.6448,7.5202
14022.0,-1.5993,1.6999,7.027
14032.0,-1.6041,1.6855,7.2927
14042.0,-2.0518,1.7573,7.6399
14052.0,-2.8419,1.7957,8.2361
14062.0,-3.3327,1.834,8.6048
14072.0,-4.142,1.6735,9.56
14082.0,-4.525,1.7238,9.7348
14092.0,-4.5586,1.5131,10.0269
14102.0,-4.3167,1.336,10.058
14112.0,-3.7469,1.2043,9.7061
14122.0,-3.2585,1.1492,9.0237
14132.0,-3.0622,1.0558,8.4372
14142.0,-3.0861,0.9601,8.2073
14152.0,-3.304,0.8332,8.2337
14162.0,-3.6057,0.7254,8.5952
14172.0,-3.8092,0.6512,8.9064
14182.0,-3.8427,0.6488,9.5912
14192.0,-3.7373,0.6967,9.7396
14202.0,-3.6272,0.6967,9.7683
14212.0,-3.3447,0.6057,9.3757
14222.0,-3.055,0.565,8.9352
14232.0,-2.7797,0.3926,8.6095
14242.0,-2.9497,0.4405,8.4204
14252.0,-3.0909,0.6369,8.7963
14262.0,-3.2465,0.7685,9.1698
14272.0,-3.4333,0.826,9.8258
14282.0,-3.7541,0.8882,10.3094
14292.0,-4.1731,0.7949,10.5848
14302.0,-4.604,0.7901,10.8362
14312.0,-4.6878,1.008,10.9798
14322.0,-4.8243,1.0894,10.8745
14332.0,-4.7836,1.1229,10.7739
14342.0,-4.1013,1.1013,10.659
14352.0,-3.3878,1.1205,10.2424
14362.0,-3.1508,1.0295,9.7468
14372.0,-3.1651,0.9266,9.2129
14382.0,-3.4668,0.8763,9.1147
14392.0,-4.0606,0.644,9.5241
14402.0,-4.7621,0.6656,9.9671
14412.0,-5.4564,0.6464,10.6398
14422.0,-5.7341,0.9098,10.9415
14432.0,-5.7102,1.0199,11.0014
14442.0,-5.5043,1.0367,10.9104
14452.0,-4.8985,1.0271,10.6111
14462.0,-4.1563,1.1349,9.8521
14472.0,-3.4261,1.087,9.1387
14482.0,-2.8395,0.9601,8.5832
14492.0,-2.4325,0.9313,8.0685
14502.0,-2.2458,1.0367,7.9631
14512.0,-2.3607,1.1013,8.2887
14522.0,-2.7031,1.0702,8.8705
14532.0,-3.0789,1.0965,9.3757
14542.0,-3.3926,1.0606,9.663
14552.0,-3.6847,0.9912,9.833
14562.0,-3.6272,1.0726,9.8593
14572.0,-3.6176,1.0463,9.7372
14582.0,-3.4117,1.2091,9.3637
14592.0,-3.237,1.3671,9.335
14602.0,-3.2082,1.4437,9.2512
14612.0,-3.201,1.4437,9.4355
14622.0,-3.2585,1.4126,9.4044
14632.0,-3.2034,1.4724,9.3661
14642.0,-3.1436,1.4413,9.4739
14652.0,-3.201,1.4892,9.3733
14662.0,-3.1556,1.5945,9.3948
14672.0,-3.0598,1.6448,9.4116
14682.0,-3.0694,1.585,9.2273
14692.0,-3.1388,1.4892,9.1961
14702.0,-3.1891,1.391,9.1626
14712.0,-3.1963,1.4317,9.2895
14722.0,-3.3423,1.3671,9.6965
14732.0,-3.395,1.4389,9.809
14742.0,-3.6152,1.4246,9.9359
14752.0,-3.8762,1.2761,10.2639
14762.0,-4.1348,1.2234,10.3022
14772.0,-4.3215,1.2977,10.2424
14782.0,-4.3407,1.2929,10.24
14792.0,-4.3024,1.1995,10.0461
14802.0,-4.027,1.1516,9.7899
14812.0,-3.6799,1.1181,9.584
14822.0,-3.4189,1.2474,9.2919
14832.0,-3.5721,1.3599,9.1985
14842.0,-3.6871,1.5467,8.9016
14852.0,-4.027,1.6017,8.9232
14862.0,-4.4891,1.4629,9.2751
14872.0,-4.798,1.4174,9.6893
14882.0,-4.7357,1.4868,9.9407
14892.0,-4.561,1.3982,10.1083
14902.0,-4.13,1.6185,9.8785
14912.0,-3.699,1.5131,9.2847
14922.0,-3.4955,1.5562,8.7197
14932.0,-3.1532,1.6831,8.2289
14942.0,-3.1436,1.8028,8.2169
14952.0,-3.2633,1.8818,8.509
14962.0,-3.5362,2.0877,8.7963
14972.0,-3.8068,1.9752,9.2201
14982.0,-4.13,2.0255,9.3661
14992.0,-4.4245,1.9178,9.584
15002.0,-4.6256,1.8818,9.5624
15012.0,-4.6711,1.9561,9.5457
15022.0,-4.5538,1.9944,9.4284
15032.0,-4.3024,2.083,9.0357
15042.0,-4.1803,1.9154,8.5449
15052.0,-4.1372,1.8794,8.272
15062.0,-3.9433,1.8675,8.2911
15072.0,-4.0534,2.0111,8.6263
15082.0,-4.2114,2.15,8.8945
15092.0,-4.0438,2.3822,9.1195
15102.0,-4.3574,2.2194,9.6367
15112.0,-4.221,2.1883,9.5481
15122.0,-4.0941,1.968,9.2081
15132.0,-4.0079,1.7645,8.9567
15142.0,-3.814,1.7645,8.6742
15152.0,-3.8283,1.6807,8.8083
15162.0,-4.0342,1.64,9.0621
15172.0,-4.0582,1.7358,9.3877
15182.0,-4.1037,1.7717,9.9383
15192.0,-4.1946,1.8004,10.1418
15202.0,-4.2401,1.7478,10.2113
15212.0,-4.1755,1.573,9.9982
15222.0,-3.9887,1.494,9.5577
15232.0,-3.7852,1.5155,9.2296
15242.0,-3.4381,1.5706,8.7963
15252.0,-3.4668,1.4437,8.8442
15262.0,-3.6536,1.4437,8.9759
15272.0,-3.8331,1.561,9.4332
15282.0,-3.9648,1.6185,9.7875
15292.0,-3.802,1.6496,9.991
15302.0,-3.6943,1.7023,9.9766
15312.0,-3.6966,1.6472,9.8258
15322.0,-3.699,1.5634,9.4667
15332.0,-3.711,1.5155,9.3613
15342.0,-3.79,1.5395,9.1937
15352.0,-3.6607,1.5395,9.2344
15362.0,-3.541,1.4724,9.2584
15372.0,-3.6416,1.5012,9.3541
15382.0,-3.6679,1.4653,9.4691
15392.0,-3.7134,1.4868,9.7181
15402.0,-3.8403,1.4437,10.0006
15412.0,-3.8595,1.4676,9.9934
15422.0,-3.8211,1.5131,9.9407
15432.0,-3.5195,1.5347,9.7899
15442.0,-3.2801,1.5443,9.4523
15452.0,-3.2753,1.5299,9.1554
15462.0,-3.3279,1.4509,9.0668
15472.0,-3.4381,1.5586,9.2823
15482.0,-3.5841,1.6783,9.4715
15492.0,-3.5817,1.7885,9.742
15502.0,-3.6248,1.8196,9.9982
15512.0,-3.62,1.7358,10.0509
15522.0,-3.6703,1.664,10.1083
15532.0,-3.6895,1.6927,10.1754
15542.0,-3.5865,1.6879,10.0389
15552.0,-3.5745,1.8603,10.0485
15562.0,-3.4524,1.913,9.7085
15572.0,-3.4931,1.8124,9.6941
15582.0,-3.4524,1.8148,9.6199
15592.0,-3.4333,1.6544,9.6893
15602.0,-3.5338,1.4509,10.0245
15612.0,-3.6464,1.2857,10.3525
15622.0,-3.79,1.2091,10.5465
15632.0,-3.8331,1.2043,10.6111
15642.0,-3.7709,1.1875,10.4483
15652.0,-3.6129,1.2474,10.1466
15662.0,-3.4381,1.1995,9.7324
15672.0,-3.0837,1.2234,9.4571
15682.0,-2.7198,1.2402,9.0812
15692.0,-2.7054,1.1923,9.086
15702.0,-2.4445,1.4054,8.8035
15712.0,-2.4062,1.5012,8.7532
15722.0,-2.4493,1.6065,8.8394
15732.0,-2.6408,1.5658,9.007
15742.0,-2.6336,1.3288,9.1602
15752.0,-2.6312,1.2785,9.3733
15762.0,-2.6552,1.2354,9.5792
15772.0,-2.727,1.2067,9.3996
15782.0,-2.7318,1.1181,9.5265
15792.0,-2.7318,1.0104,9.3853
15802.0,-2.648,0.9984,9.2296
15812.0,-2.8084,0.8643,9.177
15822.0,-3.0598,0.7901,9.2129
15832.0,-3.2585,0.7254,9.4523
15842.0,-3.1627,0.8116,9.7564
15852.0,-3.0358,0.9242,9.8067
15862.0,-3.0215,0.8691,9.675
15872.0,-2.9808,0.905,9.5074
15882.0,-2.8276,0.8164,9.2967
15892.0,-2.7366,0.8284,9.1075
15902.0,-2.7677,0.8404,9.2368
15912.0,-2.8778,0.9792,9.256
15922.0,-2.8946,0.9888,9.3087
15932.0,-2.9568,0.9936,9.5313
15942.0,-2.794,1.0511,9.7276
15952.0,-2.7773,1.1013,9.73
15962.0,-2.8084,1.1636,9.7659
15972.0,-2.8371,1.2354,9.7683
15982.0,-2.8994,1.2474,9.7707
15992.0,-2.8778,1.3575,9.7731
16002.0,-2.8635,1.4006,9.6702
16012.0,-2.8323,1.4533,9.6869
16022.0,-2.8252,1.4078,9.7755
16032.0,-2.7845,1.3743,9.7923
16042.0,-2.8443,1.4557,9.8258
16052.0,-2.8084,1.4916,9.7779
16062.0,-2.7557,1.5419,9.8426
16072.0,-2.727,1.6712,9.8737
16082.0,-2.6432,1.6927,9.9479
16092.0,-2.7653,1.6927,9.9958
16102.0,-2.6576,1.6903,10.0126
16112.0,-2.6432,1.652,10.1083
16122.0,-2.6887,1.719,10.0293
16132.0,-2.7485,1.7502,10.1418
16142.0,-2.7557,1.7957,10.1227
16152.0,-2.9185,1.8747,10.3262
16162.0,-2.9904,1.9058,10.3789
16172.0,-3.134,1.9632,10.5872
16182.0,-3.213,1.9393,10.6207
16192.0,-3.3591,1.8579,10.7907
16202.0,-3.4572,1.8004,10.7931
16212.0,-3.5003,1.7095,10.8026
16222.0,-3.3279,1.8292,10.4866
16232.0,-3.1484,1.8004,10.2424
16242.0,-2.9808,1.8962,9.9455
16252.0,-2.6983,1.9561,9.7875
16262.0,-2.6456,2.0375,9.73
16272.0,-2.794,2.0303,9.2799
16282.0,-2.8898,1.9154,9.3853
16292.0,-2.9616,1.8459,9.3853
16302.0,-3.5171,1.8818,9.7252
16312.0,-4.0654,1.9489,9.7109
16322.0,-4.3814,1.901,9.8426
16332.0,-4.4508,1.7789,9.9383
16342.0,-4.2234,1.7262,9.6319
16352.0,-4.027,1.6209,9.5146
16362.0,-3.8427,1.6616,9.2847
16372.0,-3.5195,1.7142,8.9495
16382.0,-3.237,1.6472,9.1985
16392.0,-2.9951,1.6448,9.019
16402.0,-2.897,1.5945,8.8538
16412.0,-2.6863,1.6089,8.849
16422.0,-2.6145,1.5275,8.6479
16432.0,-2.7916,1.4222,8.6574
16442.0,-3.0789,1.4676,8.5234
16452.0,-3.5003,1.4724,8.7412
16462.0,-3.9313,1.4485,9.3182
16472.0,-4.3024,1.3479,9.7947
16482.0,-4.47,1.2929,10.24
16492.0,-4.3383,1.2258,10.3573
16502.0,-3.9265,1.1875,9.9479
16512.0,-3.5841,1.154,9.3565
16522.0,-3.4477,1.0247,8.8801
16532.0,-3.3639,1.0175,8.5617
16542.0,-3.3662,0.9577,8.6814
16552.0,-3.5985,0.8835,8.9567
16562.0,-3.4979,0.9457,9.426
16572.0,-3.5626,0.929,9.4978
16582.0,-3.5602,0.826,9.7468
16592.0,-3.4046,0.7901,9.6175
16602.0,-3.1436,0.7638,9.4763
16612.0,-2.9497,0.8236,9.0788
16622.0,-2.8898,0.7278,8.8394
16632.0,-2.6671,0.747,8.7604
16642.0,-2.6647,0.7494,8.9711
16652.0,-2.9736,0.7183,9.2656
16662.0,-3.3208,0.5866,9.912
16672.0,-3.486,0.5387,10.5225
16682.0,-3.6392,0.4788,10.8362
16692.0,-3.79,0.4573,11.0804
16702.0,-3.8642,0.5028,10.987
16712.0,-3.8451,0.6321,10.8242
16722.0,-3.9049,0.5459,10.5512
16732.0,-3.9504,0.5555,10.4291
16742.0,-3.948,0.5698,10.3525
16752.0,-3.8786,0.5578,10.4339
16762.0,-3.9576,0.5674,10.5919
16772.0,-4.0845,0.5363,10.7308
16782.0,-4.1539,0.6584,10.8529
16792.0,-3.8451,0.6967,11.0684
16802.0,-3.5362,0.6919,10.7452
16812.0,-3.5362,0.5722,10.5536
16822.0,-3.5219,0.6464,10.2113
16832.0,-3.4261,0.7135,10.0269
16842.0,-3.5195,0.644,9.7252
16852.0,-3.6799,0.5914,9.6582
16862.0,-3.8068,0.7446,9.7061
16872.0,-3.9887,0.814,9.7588
16882.0,-3.9911,0.9313,9.8665
16892.0,-3.8523,1.0295,9.8306
16902.0,-3.7014,1.0247,9.7851
16912.0,-3.2777,0.9625,9.6582
16922.0,-2.7438,0.8835,9.2584
16932.0,-2.1428,0.7925,8.8418
16942.0,-1.8124,0.6584,8.4036
16952.0,-1.8483,0.4094,8.2648
16962.0,-1.9704,0.3807,8.2863
16972.0,-2.1715,0.3567,8.5976
16982.0,-2.636,0.34,8.9783
16992.0,-2.8922,0.2921,9.1578
17002.0,-3.0023,0.3807,9.3613
17012.0,-3.1723,0.3687,9.3541
17022.0,-3.0598,0.2753,9.2751
17032.0,-2.9521,0.3304,9.0549
17042.0,-2.9401,0.4262,8.9256
17052.0,-2.8994,0.6177,8.7149
17062.0,-2.7078,0.8404,8.5976
17072.0,-2.6288,0.9768,8.4348
17082.0,-2.6983,0.996,8.5329
17092.0,-2.7126,1.087,8.3965
17102.0,-2.7342,1.0032,8.6215
17112.0,-2.6504,1.0151,8.8083
17122.0,-2.66,1.1253,9.1291
17132.0,-2.7366,1.1564,9.2823
17142.0,-2.6312,1.2546,9.2751
17152.0,-2.4948,1.336,9.1506
17162.0,-2.375,1.4222,9.1315
17172.0,-2.4038,1.4317,9.2727
17182.0,-2.5714,1.5203,9.5026
17192.0,-2.6169,1.5323,9.8785
17202.0,-2.7869,1.5658,10.1586
17212.0,-3.0382,1.5658,10.4531
17222.0,-3.1412,1.5658,10.7093
17232.0,-3.1077,1.561,10.8936
17242.0,-3.1388,1.6281,10.8936
17252.0,-2.9185,1.7597,10.7045
17262.0,-2.8778,1.7214,10.3813
17272.0,-3.1747,1.6137,10.4722
17282.0,-3.4596,1.5275,10.5369
17292.0,-3.6224,1.5778,11.0014
17302.0,-3.7804,1.5945,11.2934
17312.0,-3.7804,1.6975,11.5975
17322.0,-3.2441,1.7765,11.5017
17332.0,-2.9353,1.7717,11.0995
17342.0,-2.7725,1.5874,10.4124
17352.0,-2.5738,1.6568,9.6774
17362.0,-2.6384,1.5562,9.3039
17372.0,-3.3423,1.5682,9.2656
17382.0,-4.0965,1.4198,9.8521
17392.0,-4.6208,1.4868,10.3932
17402.0,-4.944,1.5227,10.8314
17412.0,-5.3367,1.3551,11.2934
17422.0,-5.1691,1.2713,11.1857
17432.0,-4.6615,1.2977,10.8577
17442.0,-4.1084,1.1827,10.343
17452.0,-3.292,1.2953,9.5289
17462.0,-2.411,1.3216,8.7628
17472.0,-1.9776,1.2594,8.1475
17482.0,-1.8842,1.3431,7.9487
17492.0,-2.0111,1.2785,8.0014
17502.0,-2.6432,1.4317,8.5162
17512.0,-3.1723,1.5347,9.0525
17522.0,-3.4692,1.64,9.3063
17532.0,-3.7493,1.5921,9.6774
17542.0,-3.9576,1.4222,9.9192
17552.0,-4.0917,1.2378,10.2017
17562.0,-3.8858,1.3048,10.1059
17572.0,-3.5386,1.2402,9.9431
17582.0,-3.0502,1.1995,9.7061
17592.0,-2.8395,1.1516,9.2991
17602.0,-2.6839,1.1708,8.9615
17612.0,-2.5618,1.0487,8.5234
17622.0,-2.7988,0.7901,8.6095
17632.0,-3.0885,0.5578,8.9232
17642.0,-3.632,0.3065,9.4475
17652.0,-3.8427,0.1413,9.8881
17662.0,-3.62,0.4334,10.2304
17672.0,-3.2465,0.6129,10.2208
17682.0,-2.7581,0.7638,9.8474
17692.0,-2.4205,0.7973,9.402
17702.0,-2.2338,0.7302,8.916
17712.0,-2.3367,0.6177,8.5904
17722.0,-2.6121,0.5531,8.7053
17732.0,-2.9377,0.6129,9.0501
17742.0,-3.316,0.6033,9.742
17752.0,-3.7326,0.6967,10.3334
17762.0,-4.0247,0.7398,10.8936
17772.0,-4.0941,0.7159,11.169
17782.0,-4.0318,0.5986,11.0588
17792.0,-3.9241,0.644,10.5584
17802.0,-3.7038,0.723,9.9742
17812.0,-3.6105,0.6656,9.6917
17822.0,-3.565,0.7638,9.7324
17832.0,-3.6129,0.7087,9.7779
17842.0,-3.6679,0.7374,10.0772
17852.0,-3.7733,0.6225,10.307
17862.0,-3.462,0.6919,10.3645
17872.0,-3.055,0.6608,10.161
17882.0,-3.1771,0.7183,9.7588
17892.0,-3.2681,0.8092,9.5361
17902.0,-3.2753,0.8835,9.4427
17912.0,-3.4309,0.9505,9.2751
17922.0,-3.9456,1.0199,9.2033
17932.0,-4.4053,0.8595,9.4236
17942.0,-4.6208,0.8523,9.7803
17952.0,-4.5059,0.7638,10.343
17962.0,-4.1324,0.8475,10.2903
17972.0,-3.644,0.9122,10.2903
17982.0,-2.739,1.008,9.6654
17992.0,-1.9417,0.9266,8.7484
18002.0,-1.6783,0.9242,8.0804
18012.0,-1.8196,0.6249,7.6614
18022.0,-2.4541,0.4238,7.8506
18032.0,-3.2705,0.4046,8.9112
18042.0,-3.8906,0.5243,9.7636
18052.0,-4.1755,0.6728,10.7571
18062.0,-4.1922,0.9194,11.0564
18072.0,-3.9217,0.9792,10.8912
18082.0,-3.5626,0.9553,10.0844
18092.0,-3.0813,0.9912,9.0884
18102.0,-2.6528,0.9481,8.2959
18112.0,-2.4421,1.1684,7.932
18122.0,-2.5163,1.3695,7.8075
18132.0,-2.5402,1.4964,7.908
18142.0,-2.4972,1.7645,8.0804
18152.0,-2.6647,1.8555,8.4587
18162.0,-2.9281,1.8052,8.8992
18172.0,-3.0765,1.7813,9.1722
18182.0,-2.9592,1.7789,9.2656
18192.0,-2.7677,1.7238,9.2249
18202.0,-2.466,1.8172,8.7197
18212.0,-2.2936,1.7454,8.3965
18222.0,-2.296,1.7933,8.193
18232.0,-2.3703,1.7837,8.4228
18242.0,-2.6073,1.8579,8.9016
18252.0,-2.7701,1.8603,9.5313
18262.0,-3.0047,1.8292,10.1347
18272.0,-3.3399,1.7765,10.6279
18282.0,-3.5745,1.8435,10.908
18292.0,-3.5386,1.7478,10.9415
18302.0,-3.5985,1.7502,10.8553
18312.0,-3.5578,1.7789,10.6877
18322.0,-3.5865,1.7813,10.8816
18332.0,-3.6799,1.8651,10.8002
18342.0,-3.6416,1.7837,10.8194
18352.0,-3.6416,1.8148,11.212
18362.0,-3.6105,1.8531,11.1043
18372.0,-3.2034,1.8268,11.1259
18382.0,-2.9425,1.7502,10.9271
18392.0,-2.909,1.6424,10.477
18402.0,-2.8395,1.7286,10.0245
18412.0,-2.9449,1.6712,9.809
18422.0,-3.395,1.6688,9.5888
18432.0,-4.2258,1.5634,9.9766
18442.0,-5.0613,1.4533,10.3118
18452.0,-5.3534,1.4653,10.8912
18462.0,-5.1834,1.5874,11.0732
18472.0,-5.138,1.6137,10.8481
18482.0,-5.2505,1.403,10.5105
18492.0,-4.6855,1.2426,10.0054
18502.0,-3.8235,1.4844,9.5002
18512.0,-2.8587,1.6209,8.9328
18522.0,-2.0255,1.7621,8.3725
18532.0,-1.5562,1.7286,7.8075
18542.0,-1.4892,1.6712,7.6519
18552.0,-1.6807,1.7214,7.7428
18562.0,-2.1524,1.8723,8.1738
18572.0,-2.715,2.0446,8.4252
18582.0,-3.3232,2.083,9.1459
18592.0,-3.6871,2.0111,9.6007
18602.0,-4.0821,1.8148,9.754
18612.0,-4.1037,1.6807,9.9838
18622.0,-3.8882,1.7023,9.9431
18632.0,-3.4572,1.7119,9.7348
18642.0,-3.5386,1.4629,9.3948
18652.0,-3.5314,1.4868,9.0094
18662.0,-3.5674,1.2905,8.9663
18672.0,-3.5027,1.0894,9.0549
18682.0,-3.4477,0.9768,9.2727
18692.0,-3.4644,0.9242,9.5122
18702.0,-3.4788,0.7446,9.6103
18712.0,-3.2801,0.8787,9.481
18722.0,-3.0382,0.893,9.5457
18732.0,-2.8108,0.8763,9.165
18742.0,-2.5833,0.8523,8.8849
18752.0,-2.32,0.7446,8.6957
18762.0,-2.3296,0.7805,8.4922
18772.0,-2.66,0.8188,8.6574
18782.0,-3.0646,0.7278,9.1195
18792.0,-3.2705,0.8547,9.7683
18802.0,-3.5554,0.8284,10.2041
18812.0,-3.735,0.9481,10.7548
18822.0,-3.8188,1.0534,10.8098
18832.0,-3.7804,1.0032,10.9056
18842.0,-3.7302,1.0511,10.6614
18852.0,-3.371,1.0511,10.1155
18862.0,-3.3998,1.0391,9.8569
18872.0,-3.3998,1.0199,9.7276
18882.0,-3.4836,1.0558,9.9024
18892.0,-3.5865,1.1013,10.2185
18902.0,-3.6248,1.0175,10.6422
18912.0,-3.5817,1.0032,10.9032
18922.0,-3.158,1.0415,11.1043
18932.0,-2.7629,1.0415,10.6638
18942.0,-2.8683,0.905,10.2065
18952.0,-2.7366,1.0942,9.4739
18962.0,-2.8539,1.0151,9.4236
18972.0,-3.2561,1.0104,9.086
18982.0,-4.1108,1.0678,9.3901
18992.0,-4.8411,1.0511,9.9503
19002.0,-5.1763,1.0271,10.6303
19012.0,-4.9416,1.1588,11.0229
19022.0,-4.6184,1.166,11.0373
19032.0,-4.2928,1.1229,10.24
19042.0,-3.4524,1.1516,9.1195
19052.0,-2.6264,1.1157,8.1068
19062.0,-2.0494,1.1301,7.5848
19072.0,-1.8675,1.1157,7.3047
19082.0,-1.9106,1.0319,7.6591
19092.0,-2.217,0.9122,8.3175
19102.0,-2.5977,0.7326,9.019
19112.0,-3.1268,0.8092,9.7947
19122.0,-3.7757,0.9266,10.3358
19132.0,-4.2449,0.8499,10.6781
19142.0,-4.2186,0.7518,10.5656
19152.0,-4.051,0.6728,9.9623
19162.0,-3.9648,0.6321,9.6582
19172.0,-3.7757,0.7757,9.2249
19182.0,-3.3902,1.063,8.837
19192.0,-3.1244,1.1756,8.7293
19202.0,-3.122,1.4102,8.6048
19212.0,-3.0622,1.4509,8.679
19222.0,-3.1795,1.4605,9.0692
19232.0,-3.1867,1.5419,9.1794
19242.0,-3.1891,1.6712,9.1291
19252.0,-3.0215,1.6951,8.8873
19262.0,-2.8299,1.6903,8.576
19272.0,-2.6719,1.7669,8.5305
19282.0,-2.478,1.8124,8.4467
19292.0,-2.3535,1.6975,8.5401
19302.0,-2.2697,1.7957,8.4994
19312.0,-2.4181,1.7885,8.7029
19322.0,-2.4349,1.8148,8.7317
19332.0,-2.5211,1.9106,9.1722
19342.0,-2.6767,1.9656,9.3518
19352.0,-2.885,1.9225,9.7372
19362.0,-3.0095,2.0327,9.8809
19372.0,-2.8922,2.0111,9.8569
19382.0,-2.8084,2.047,9.7707
19392.0,-2.8012,2.0255,9.7612
19402.0,-2.8898,2.0303,9.6414
19412.0,-2.976,2.1117,9.6367
19422.0,-3.1699,2.0494,9.8881
19432.0,-3.5865,2.0566,10.386
19442.0,-3.8451,2.0207,10.75
19452.0,-3.814,1.9106,10.9583
19462.0,-3.4357,1.9345,10.805
19472.0,-2.6121,2.0207,10.5034
19482.0,-2.1883,1.9632,9.9
19492.0,-2.0901,2.0207,9.4308
19502.0,-2.0566,1.9489,9.2344
19512.0,-2.3583,1.8459,9.5553
19522.0,-3.3232,1.6137,10.137
19532.0,-4.2282,1.585,10.6231
19542.0,-4.8267,1.7166,10.6757
19552.0,-5.2505,1.6975,10.6303
19562.0,-5.5115,1.4581,10.6015
19572.0,-5.3199,1.64,10.1586
19582.0,-5.1523,1.4365,10.2927
19592.0,-4.7142,1.3671,10.4196
19602.0,-4.0366,1.3312,10.0485
19612.0,-3.1292,1.2186,9.4547
19622.0,-2.2505,1.3312,8.4348
19632.0,-1.7502,1.2689,7.7955
19642.0,-1.6137,1.1205,7.6279
19652.0,-1.9369,1.1612,8.09
19662.0,-2.6552,1.1995,9.086
19672.0,-3.3782,1.3431,9.6534
19682.0,-3.9696,1.4198,10.3789
19692.0,-4.3287,1.3216,10.4938
19702.0,-4.7238,1.1899,10.7356
19712.0,-4.628,1.0798,10.5608
19722.0,-4.3742,0.9816,10.3453
19732.0,-3.9433,0.8954,10.0796
19742.0,-3.6631,0.7398,9.6175
19752.0,-3.4237,0.747,9.1411
19762.0,-3.3447,0.5674,8.995
19772.0,-3.4022,0.4621,9.0621
19782.0,-3.7134,0.3926,9.4284
19792.0,-3.9911,0.498,9.8067
19802.0,-4.0007,0.4908,9.9479
19812.0,-3.7996,0.5148,9.7013
19822.0,-3.8331,0.5291,9.675
19832.0,-3.6105,0.5243,9.5792
19842.0,-3.3495,0.6033,9.2488
19852.0,-3.1149,0.6512,9.0022
19862.0,-3.0622,0.6584,9.0094
19872.0,-3.1412,0.6393,9.074
19882.0,-3.3998,0.6512,9.5648
19892.0,-3.5745,0.723,10.0126
19902.0,-3.8475,0.759,10.3669
19912.0,-3.9911,0.7638,10.5848
19922.0,-3.9385,0.7302,10.5919
19932.0,-3.7589,0.747,10.3238
19942.0,-3.6392,0.7398,9.9311
19952.0,-3.62,0.7877,9.6534
19962.0,-3.711,0.7949,9.7468
19972.0,-3.8427,0.8188,9.9288
19982.0,-4.2569,0.893,10.4675
19992.0,-4.4628,0.9313,10.6374
20002.0,-4.6663,0.9625,10.8098
20012.0,-4.7046,1.0199,10.7643
20022.0,-4.2665,1.1229,10.6542
20032.0,-3.8666,1.1851,10.1083
20042.0,-3.9576,1.0798,9.6223
20052.0,-3.9241,1.0534,9.2344
20062.0,-3.7709,1.1708,9.3925
20072.0,-3.6033,1.0582,9.3901
20082.0,-3.6344,1.2641,9.7468
20092.0,-3.9241,1.166,9.6295
20102.0,-4.1468,1.0534,9.8114
20112.0,-4.6495,0.7207,9.8904
20122.0,-4.9368,0.7709,10.0102
20132.0,-4.7381,1.0798,10.0269
20142.0,-4.5777,1.0295,9.9311
20152.0,-4.2689,1.087,9.7851
20162.0,-3.8642,1.0175,9.4116
20172.0,-3.5075,0.9529,9.0453
20182.0,-3.0574,0.7805,8.7005
20192.0,-2.7677,0.6967,8.4898
20202.0,-2.4014,0.8116,8.3294
20212.0,-2.4445,0.7709,8.1403
20222.0,-2.7078,0.759,8.4779
20232.0,-3.1268,0.5674,8.7484
20242.0,-3.6559,0.3974,9.2512
20252.0,-4.039,0.328,9.6798
20262.0,-4.2641,0.4142,9.9623
20272.0,-4.2976,0.5483,10.1873
20282.0,-4.2258,0.8116,9.8689
20292.0,-3.7469,0.9577,9.4308
20302.0,-3.3375,1.0487,8.8609
20312.0,-2.9185,1.0678,8.3294
20322.0,-2.5714,1.1037,7.9416
20332.0,-2.4995,1.1588,8.023
20342.0,-2.5953,1.1013,8.2815
20352.0,-2.7198,1.1564,8.5928
20362.0,-2.8084,1.1468,8.916
20372.0,-2.9233,1.2115,9.1435
20382.0,-2.9137,1.1803,9.3326
20392.0,-2.909,1.2881,9.244
20402.0,-2.7126,1.3623,9.0573
20412.0,-2.4732,1.4605,8.8322
20422.0,-2.4062,1.5802,8.6622
20432.0,-2.2721,1.5562,8.4707
20442.0,-2.3631,1.6185,8.655
20452.0,-2.5546,1.4988,8.9567
20462.0,-2.8347,1.6305,9.3111
20472.0,-2.9521,1.7358,9.663
20482.0,-3.1651,1.7166,9.8617
20492.0,-3.2417,1.7142,10.1179
20502.0,-3.3303,1.7382,10.0437
20512.0,-3.4357,1.7765,10.0892
20522.0,-3.371,1.7573,10.0748
20532.0,-3.5051,1.6592,10.24
20542.0,-3.5578,1.5323,10.2735
20552.0,-3.3543,1.4581,10.5034
20562.0,-3.0287,1.494,10.4076
20572.0,-2.7414,1.4533,10.3908
20582.0,-2.6647,1.3838,9.9359
20592.0,-2.7366,1.3838,9.7205
20602.0,-2.7007,1.5538,9.4068
20612.0,-2.8802,1.5945,9.4044
20622.0,-3.632,1.5419,9.6917
20632.0,-4.3742,1.4461,10.2568
20642.0,-4.889,1.5586,10.8649
20652.0,-5.0637,1.5802,11.0756
20662.0,-4.7908,1.5371,11.0612
20672.0,-4.2401,1.403,10.4267
20682.0,-3.8858,1.3336,9.7707
20692.0,-3.5219,1.1851,9.1004
20702.0,-2.8802,1.2186,8.4156
20712.0,-2.5546,1.1947,8.4036
20722.0,-2.308,1.1971,8.4013
20732.0,-2.2218,1.3384,8.6287
20742.0,-2.3846,1.3599,9.0333
20752.0,-2.4852,1.3791,9.4355
20762.0,-2.6576,1.4581,9.4978
20772.0,-2.7988,1.5275,9.6486
20782.0,-3.1388,1.3958,9.5768
20792.0,-3.4668,1.2977,9.7683
20802.0,-3.9504,1.087,10.1083
20812.0,-4.3814,0.984,10.7093
20822.0,-4.5131,1.1013,10.9822
20832.0,-4.5442,1.1779,11.1354
20842.0,-4.2856,1.1827,11.1474
20852.0,-3.9935,1.0822,10.8218
20862.0,-3.5745,1.1229,10.4459
20872.0,-3.0574,1.2282,9.6438
20882.0,-2.4852,1.2641,9.0118
20892.0,-2.3128,1.324,8.5784
20902.0,-2.2841,1.336,8.6263
20912.0,-2.3152,1.2785,8.6335
20922.0,-2.8347,1.075,9.2416
20932.0,-3.3878,0.8978,9.8306
20942.0,-3.5721,1.0367,10.58
20952.0,-3.8403,1.0151,10.8649
20962.0,-3.8259,1.0199,10.8074
20972.0,-3.6176,0.984,10.3837
20982.0,-3.5171,0.7757,10.3022
20992.0,-3.3232,0.6536,9.9311
21002.0,-3.1723,0.7159,9.6654
21012.0,-3.0263,0.8691,9.426
21022.0,-3.0957,0.9409,9.4954
21032.0,-3.1747,1.0558,9.6558
21042.0,-3.395,1.0271,9.9024
21052.0,-3.5314,0.9074,10.1227
21062.0,-3.5865,0.8811,10.0963
21072.0,-3.7158,0.996,9.9982
21082.0,-3.6799,1.087,9.7683
21092.0,-3.5769,1.1013,9.6055
21102.0,-3.6751,1.1061,9.4691
21112.0,-3.6464,0.9864,9.3805
21122.0,-3.8762,0.9673,9.5241
21132.0,-4.1108,1.0151,9.6726
21142.0,-4.3431,1.0391,10.1394
21152.0,-4.4843,1.0702,10.3597
21162.0,-4.4987,1.1803,10.5082
21172.0,-4.2713,1.3096,10.2711
21182.0,-3.7014,1.3695,9.7612
21192.0,-3.2298,1.2091,9.2464
21202.0,-3.2513,1.1253,8.7221
21212.0,-3.4165,0.9888,8.5976
21222.0,-3.5913,1.0056,8.6646
21232.0,-3.869,1.1181,8.8897
21242.0,-4.13,1.0223,9.1578
21252.0,-4.4772,0.8787,9.414
21262.0,-4.8052,0.8428,9.8138
21272.0,-4.8147,0.9194,9.8067
21282.0,-4.6663,0.8619,9.7372
21292.0,-4.4436,0.7614,9.4451
21302.0,-4.2162,0.6632,9.3518
21312.0,-3.8954,0.668,9.1028
21322.0,-3.3878,0.7374,8.7364
21332.0,-3.1316,0.6752,8.5042
21342.0,-2.8012,0.6416,8.2528
21352.0,-2.6264,0.6488,8.2265
21362.0,-2.7773,0.6129,8.1523
21372.0,-2.9784,0.3639,8.4084
21382.0,-3.3279,0.2394,9.0118
21392.0,-3.8666,0.2179,9.4978
21402.0,-4.1707,0.2322,9.9958
21412.0,-4.5394,0.0527,10.3621
21422.0,-4.7501,0.1125,10.3908
21432.0,-4.6424,0.1891,10.1203
21442.0,-4.2689,0.3639,9.5912
21452.0,-3.893,0.5578,9.0621
21462.0,-3.6966,0.759,8.7484
21472.0,-3.5602,0.8332,8.5186
21482.0,-3.6895,0.9242,8.7484
21492.0,-3.8738,0.8428,8.9615
21502.0,-3.96,1.0534,9.2296
21512.0,-3.9863,0.9577,9.6055
21522.0,-4.0294,0.9122,9.7013
21532.0,-3.9193,0.8236,9.4667
21542.0,-3.6847,0.723,9.3494
21552.0,-3.4931,0.6464,9.0046
21562.0,-3.3567,0.6704,8.7676
21572.0,-3.2992,0.7254,8.7269
21582.0,-3.292,0.6393,8.9447
21592.0,-3.2561,0.6393,9.1051
21602.0,-3.4093,0.6081,9.3254
21612.0,-3.5219,0.5818,9.4379
21622.0,-3.5147,0.6416,9.5816
21632.0,-3.5219,0.6871,9.5146
21642.0,-3.4548,0.7494,9.4954
21652.0,-3.3519,0.814,9.7516
21662.0,-3.2513,0.9792,9.4355
21672.0,-3.0837,1.1253,9.244
21682.0,-3.0167,1.2498,8.9591
21692.0,-3.067,1.1253,9.177
21702.0,-3.1603,1.0989,9.5313
21712.0,-3.3232,1.1875,9.8904
21722.0,-3.5674,1.2282,10.2137
21732.0,-3.6057,1.2833,10.6494
21742.0,-3.6488,1.3288,10.5896
21752.0,-3.7685,1.2163,10.5225
21762.0,-3.6703,1.075,10.3334
21772.0,-3.5386,1.1325,9.979
21782.0,-3.3974,0.9984,9.9024
21792.0,-3.4884,0.9313,10.252
21802.0,-3.5482,0.8643,10.5273
21812.0,-3.6583,0.8643,10.8266
21822.0,-3.7326,0.8045,11.0588
21832.0,-3.6607,0.7757,11.0971
21842.0,-3.4596,0.6847,11.1306
21852.0,-3.146,0.7781,10.8194
21862.0,-3.0574,0.8404,10.3142
21872.0,-3.1053,0.9409,9.7468
21882.0,-3.2322,0.8667,9.5648
21892.0,-3.7254,0.8068,9.7157
21902.0,-4.3981,0.7111,10.0748
21912.0,-4.8746,0.7805,10.5536
21922.0,-5.0111,0.8068,11.1163
21932.0,-5.0973,0.7183,11.2815
21942.0,-4.6615,0.9242,10.9295
21952.0,-4.0294,0.8859,10.1921
21962.0,-3.3782,0.8954,9.3757
21972.0,-2.4924,0.8906,8.509
21982.0,-2.4229,0.8021,8.1499
21992.0,-2.387,0.6177,8.0278
22002.0,-2.5426,0.6081,8.3965
22012.0,-2.7653,0.7446,8.7436
22022.0,-2.9832,0.893,9.3374
22032.0,-3.1867,1.0223,9.584
22042.0,-3.316,1.0032,9.6486
22052.0,-3.5219,0.8404,9.5768
22062.0,-3.7709,0.6393,9.6845
22072.0,-3.7397,0.5291,9.5816
22082.0,-3.6033,0.5339,9.5146
22092.0,-3.3686,0.4956,9.2344
22102.0,-3.2657,0.5243,9.3326
22112.0,-3.0311,0.6895,9.1889
22122.0,-2.9736,0.5722,9.1482
22132.0,-3.1244,0.3232,9.4451
22142.0,-3.3591,0.261,9.809
22152.0,-3.2322,0.407,9.6558
22162.0,-2.9736,0.5531,9.56
22172.0,-2.7031,0.656,9.1578
22182.0,-2.5953,0.6345,8.8418
22192.0,-2.6384,0.7087,8.8035
22202.0,-2.7342,0.7374,8.7891
22212.0,-3.0622,0.8332,9.2703
22222.0,-3.2082,0.8978,9.6534
22232.0,-3.2681,0.7542,9.9479
22242.0,-3.4117,0.6297,10.2113
22252.0,-3.3351,0.5818,10.3286
22262.0,-3.2848,0.6369,10.0628
22272.0,-3.0957,0.6129,9.7803
22282.0,-2.8395,0.7877,9.4834
22292.0,-2.6049,0.8356,9.1411
22302.0,-2.5474,0.7877,9.0118
22312.0,-2.5355,0.7518,8.9519
22322.0,-2.5379,0.7733,9.2536
22332.0,-2.7485,0.8667,9.5672
22342.0,-2.9951,0.9122,9.8785
22352.0,-3.3088,0.8906,10.2951
22362.0,-3.6057,0.984,10.4698
22372.0,-3.5769,1.1061,10.398
22382.0,-3.3639,1.2594,10.1801
22392.0,-3.2465,1.2067,9.8737
22402.0,-3.0215,1.2833,9.7659
22412.0,-3.0191,1.2641,9.7037
22422.0,-3.1484,1.2282,9.7037
22432.0,-3.3423,1.257,10.0556
22442.0,-3.4022,1.1684,10.1658
22452.0,-3.5913,1.0798,10.4244
22462.0,-3.6847,0.9553,10.5034
22472.0,-3.6607,1.0175,10.3334
22482.0,-3.4261,1.1133,10.319
22492.0,-2.5881,1.2378,10.1251
22502.0,-2.4732,1.2857,9.7085
22512.0,-2.8132,1.3838,9.0166
22522.0,-3.3662,1.4892,8.5425
22532.0,-4.0247,1.6664,8.5473
22542.0,-4.6184,1.9489,8.8705
22552.0,-5.1212,2.0423,9.3661
22562.0,-5.5402,1.9585,10.4435
22572.0,-4.7549,1.9609,10.7428
22582.0,-3.8307,1.8699,10.2927
22592.0,-3.122,1.7597,9.6654
22602.0,-2.4876,1.5682,8.4779
22612.0,-2.2553,1.3336,7.6974
22622.0,-2.3104,1.0654,7.1946
22632.0,-2.8683,0.8068,7.7668
22642.0,-3.565,0.7374,8.6215
22652.0,-4.0318,0.7853,9.4499
22662.0,-4.2473,0.6943,9.9814
22672.0,-4.3239,0.6823,10.3837
22682.0,-4.0223,0.6464,10.2137
22692.0,-3.5314,0.5411,9.6606
22702.0,-2.8874,0.6225,8.8322
22712.0,-2.4541,0.6416,8.3222
22722.0,-2.2841,0.68,7.9631
22732.0,-2.1787,0.7781,8.1068
22742.0,-2.1883,0.9433,8.1594
22752.0,-2.332,0.984,8.4587
22762.0,-2.4325,1.008,8.9064
22772.0,-2.5738,0.9912,9.2296
22782.0,-2.5953,1.0965,9.5481
22792.0,-2.7677,1.0798,9.6534
22802.0,-2.6408,1.1923,9.6343
22812.0,-2.4684,1.2857,9.402
22822.0,-2.296,1.2929,9.3422
22832.0,-2.2913,1.2689,9.414
22842.0,-2.2458,1.312,9.3829
22852.0,-2.399,1.2713,9.6989
22862.0,-2.4421,1.1636,10.1179
22872.0,-2.5355,1.166,10.3597
22882.0,-2.6288,1.1588,10.7236
22892.0,-2.5259,1.3647,10.7787
22902.0,-2.3032,1.4389,10.6111
22912.0,-2.1883,1.4437,10.4435
22922.0,-1.9728,1.2809,10.1323
22932.0,-1.9992,1.324,10.2041
22942.0,-2.2027,1.2354,10.3597
22952.0,-2.4493,1.1995,10.6183
22962.0,-2.648,1.2546,11.3102
22972.0,-2.8156,1.5012,11.3437
22982.0,-3.0813,1.6281,11.5377
22992.0,-3.0526,1.6185,11.3054
23002.0,-2.9137,1.6544,11.236
23012.0,-2.9066,1.6975,11.0349
23022.0,-2.8299,1.719,11.0516
23032.0,-2.6863,1.7526,11.0756
23042.0,-2.557,1.8866,11.1929
23052.0,-2.5881,1.8028,11.078
23062.0,-2.5881,1.8387,11.1235
23072.0,-2.4972,1.98,11.0349
23082.0,-1.8531,2.059,10.5201
23092.0,-1.7741,2.1093,10.0197
23102.0,-3.1699,1.822,9.6702
23112.0,-4.3191,1.5514,9.912
23122.0,-4.2713,1.7789,10.2304
23132.0,-4.3287,2.0351,10.7763
23142.0,-4.9225,2.0997,10.963
23152.0,-4.9871,2.0087,10.8409
23162.0,-4.5346,1.8842,10.4196
23172.0,-3.7421,1.6448,9.5984
23182.0,-2.8347,1.4126,8.691
23192.0,-1.9513,1.4174,7.6543
23202.0,-1.336,1.3575,6.9647
23212.0,-1.0894,1.4676,6.8666
23222.0,-1.2234,1.5658,7.2377
23232.0,-1.9178,1.5802,7.9033
23242.0,-2.7366,1.5945,8.5665
23252.0,-3.5769,1.5993,9.3326
23262.0,-4.4221,1.6424,10.0916
23272.0,-4.786,1.6568,10.4914
23282.0,-4.561,1.7071,10.6781
23292.0,-4.4341,1.7334,10.0245
23302.0,-3.9217,1.4964,9.3278
23312.0,-3.1915,1.2354,8.5473
23322.0,-2.8802,0.9792,8.1355
23332.0,-2.9185,0.8021,7.8889
23342.0,-3.1268,0.735,8.6311
23352.0,-3.3112,0.7733,8.9112
23362.0,-3.5314,0.9792,9.3685
23372.0,-3.4285,0.984,9.6893
23382.0,-3.4596,0.9553,9.5481
23392.0,-3.4333,0.8212,9.6223
23402.0,-3.3208,0.7614,9.5672
23412.0,-3.2154,0.7087,9.4451
23422.0,-3.395,0.656,9.1315
23432.0,-3.45,0.644,9.2225
23442.0,-3.4477,0.6321,9.4595
23452.0,-3.711,0.5602,9.7995
23462.0,-3.9648,0.3831,10.2137
23472.0,-4.0725,0.2442,10.4411
23482.0,-4.063,0.182,10.7548
23492.0,-3.9863,0.1149,10.6326
23502.0,-3.814,0.1365,10.2711
23512.0,-3.6296,0.1724,10.0868
23522.0,-3.4141,0.1245,9.7157
23532.0,-3.371,0.1604,9.8689
23542.0,-3.6464,0.1844,10.1969
23552.0,-3.9959,0.1628,10.477
23562.0,-4.4053,0.091,10.9966
23572.0,-4.525,0.1365,11.3772
23582.0,-4.5442,0.2466,11.3342
23592.0,-4.0701,0.249,11.2456
23602.0,-3.4596,0.1652,10.7045
23612.0,-3.304,0.0982,9.9335
23622.0,-3.1747,0.0383,9.4188
23632.0,-3.3112,0.0551,9.2177
23642.0,-3.8571,0.0311,9.2608
23652.0,-4.2162,0.2322,9.3829
23662.0,-4.8123,0.316,9.7181
23672.0,-5.0661,0.4573,10.1825
23682.0,-4.7812,0.7254,10.4962
23692.0,-4.312,0.7901,10.1251
23702.0,-3.6296,0.7614,9.6079
23712.0,-2.7533,0.759,8.8322
23722.0,-1.9369,0.7829,7.9559
23732.0,-1.8411,0.6416,7.6662
23742.0,-2.1093,0.4405,7.8171
23752.0,-2.7246,0.3496,8.3055
23762.0,-3.3399,0.3017,9.3206
23772.0,-3.8762,0.3304,10.0197
23782.0,-4.2282,0.3903,10.4315
23792.0,-4.1611,0.565,10.386
23802.0,-3.9959,0.6536,10.0676
23812.0,-3.6775,0.5507,9.5648
23822.0,-3.304,0.6871,8.9783
23832.0,-3.1268,0.6321,8.5832
23842.0,-2.9808,0.6728,8.4108
23852.0,-2.9832,0.7973,8.4539
23862.0,-3.0574,0.9433,8.5162
23872.0,-2.9449,1.1109,8.4874
23882.0,-2.8635,1.2594,8.4946
23892.0,-2.7677,1.4557,8.4779
23902.0,-2.7031,1.5203,8.5808
23912.0,-2.7414,1.585,8.6239
23922.0,-2.5666,1.7334,8.6503
23932.0,-2.3918,1.7526,8.6048
23942.0,-2.2936,1.7262,8.6143
23952.0,-2.2625,1.7502,8.7245
23962.0,-2.2218,1.7166,8.7436
23972.0,-2.2913,1.7119,8.9064
23982.0,-2.4277,1.7957,9.3925
23992.0,-2.6408,1.8699,9.7923
24002.0,-2.8347,1.9585,10.2496
24012.0,-2.8659,2.0662,10.5441
24022.0,-2.9018,2.2075,10.5608
24032.0,-2.9808,2.1404,10.4291
24042.0,-2.988,2.162,10.4507
24052.0,-3.0335,2.0183,10.4483
24062.0,-3.0263,2.0686,10.5417
24072.0,-3.2178,1.98,10.7236
24082.0,-3.2226,1.9728,10.8649
24092.0,-3.4836,2.059,11.0421
24102.0,-3.541,2.1979,11.0109
24112.0,-3.5147,2.2338,11.0014
24122.0,-2.988,2.1763,10.987
24132.0,-2.1428,2.2242,10.5536
24142.0,-2.4852,2.0039,10.1299
24152.0,-3.0311,1.7861,9.7348
24162.0,-3.2753,1.7262,9.7899
24172.0,-3.6823,1.5514,9.9527
24182.0,-4.2976,1.4844,10.2496
24192.0,-4.7836,1.4293,10.4339
24202.0,-5.1667,1.3216,10.5991
24212.0,-5.375,1.2306,10.4818
24222.0,-4.9847,1.3144,10.1538
24232.0,-4.1013,1.4078,9.8067
24242.0,-3.0861,1.4605,9.4858
24252.0,-2.2242,1.6544,8.5545
24262.0,-2.0231,1.5107,8.2337
24272.0,-1.9752,1.6065,7.8171
24282.0,-1.9968,1.7813,7.5848
24292.0,-2.6097,1.9537,8.0469
24302.0,-3.2489,2.0135,8.3917
24312.0,-3.6176,2.1476,8.8633
24322.0,-4.1348,2.0686,9.4595
24332.0,-4.5897,2.0159,9.9407
24342.0,-4.9752,1.8986,10.4028
24352.0,-5.102,1.743,10.6781
24362.0,-4.7477,1.5802,10.3453
24372.0,-4.3072,1.4557,9.809
24382.0,-4.0749,1.3503,9.0573
24392.0,-3.8188,1.0678,8.5305
24402.0,-3.7038,0.8475,8.4324
24412.0,-3.5219,0.735,8.6718
24422.0,-3.5147,0.5794,9.074
24432.0,-3.5745,0.3711,9.4236
24442.0,-3.5291,0.4166,9.6247
24452.0,-3.3782,0.3448,9.572
24462.0,-3.2346,0.2418,9.2536
24472.0,-3.0023,0.2442,9.0333
24482.0,-2.7749,0.2155,8.8202
24492.0,-2.7701,0.1963,8.758
24502.0,-2.7821,0.0934,8.77
24512.0,-3.0167,0.0168,9.086
24522.0,-3.2489,0.0718,9.3302
24532.0,-3.6775,-0.0072,9.8067
24542.0,-3.9935,0.0096,10.3765
24552.0,-4.1851,0.0838,10.8601
24562.0,-4.3981,0.1676,11.0971
24572.0,-4.3646,0.1077,11.0445
24582.0,-4.3048,0.0407,10.884
24592.0,-4.1228,-0.0335,10.5489
24602.0,-3.9241,-0.012,10.1562
24612.0,-3.7326,-0.0934,9.9623
24622.0,-3.2801,-0.0551,10.0293
24632.0,-3.0239,-0.0814,10.1251
24642.0,-3.3902,-0.2873,10.5465
24652.0,-3.644,-0.2849,10.6015
24662.0,-3.9289,-0.1053,10.5656
24672.0,-4.276,0.0144,10.5369
24682.0,-4.7669,-0.0742,10.4722
24692.0,-5.2888,-0.0024,10.6255
24702.0,-5.5186,0.3663,10.6829
24712.0,-5.6336,0.5267,10.75
24722.0,-4.8483,0.6297,10.5536
24732.0,-3.8786,0.6297,10.2639
24742.0,-2.9688,0.6201,9.651
24752.0,-2.3846,0.5962,8.7724
24762.0,-2.0279,0.4741,7.9751
24772.0,-1.9106,0.3903,7.841
24782.0,-2.3343,0.2107,8.1331
24792.0,-2.7845,0.1652,8.5617
24802.0,-3.2681,0.2825,9.4739
24812.0,-3.5267,0.2849,10.0365
24822.0,-3.699,0.4621,10.1778
24832.0,-3.8044,0.395,10.1586
24842.0,-3.5769,0.6416,9.493
24852.0,-3.3854,0.7159,8.8585
24862.0,-3.2154,0.8164,8.3749
24872.0,-3.1627,0.9816,8.1092
24882.0,-3.2298,1.0247,8.0637
24892.0,-3.0765,1.2665,8.2121
24902.0,-2.9664,1.4174,8.5042
24912.0,-3.0718,1.4509,8.8538
24922.0,-3.0335,1.5562,8.9974
24932.0,-2.9425,1.6041,9.0333
24942.0,-2.8395,1.64,9.007
24952.0,-2.5474,1.5754,8.7125
24962.0,-2.3846,1.5778,8.1475
24972.0,-2.2098,1.5826,8.0661
24982.0,-2.3703,1.4892,8.1331
24992.0,-2.6456,1.5562,8.7508
25002.0,-2.964,1.5323,9.6079
25012.0,-3.2609,1.5562,10.2304
25022.0,-3.4381,1.6496,10.5058
25032.0,-3.553,1.6616,10.4627
25042.0,-3.6033,1.6041,10.3382
25052.0,-3.5698,1.4916,10.2448
25062.0,-3.5793,1.4078,10.1897
25072.0,-3.4381,1.4892,10.2639
25082.0,-3.3016,1.5419,10.4004
25092.0,-3.3136,1.5347,10.6422
25102.0,-3.3232,1.5514,10.7476
25112.0,-3.1699,1.6328,10.6374
25122.0,-3.0502,1.6975,10.5967
25132.0,-2.794,1.7214,10.5201
25142.0,-2.4852,1.7071,10.2448
25152.0,-2.4828,1.6376,9.9072
25162.0,-2.6121,1.6352,9.1387
25172.0,-3.3471,1.2929,9.6055
25182.0,-4.276,0.9625,9.991
25192.0,-4.9656,1.0271,10.5896
25202.0,-5.4971,1.221,11.2144
25212.0,-5.8107,1.2186,11.9255
25222.0,-5.7078,1.3671,11.6957
25232.0,-5.2265,1.4269,10.9128
25242.0,-4.5011,1.5419,10.1059
25252.0,-3.474,1.5754,8.849
25262.0,-2.387,1.7597,8.0182
25272.0,-1.8076,1.7693,7.5776
25282.0,-1.6592,1.7669,7.5058
25292.0,-1.889,2.0853,7.6638
25302.0,-2.3918,2.1524,8.272
25312.0,-2.9784,2.1069,8.9807
25322.0,-3.6224,2.2146,9.414
25332.0,-4.1084,2.1811,9.7779
25342.0,-4.3311,2.1668,9.8162
25352.0,-4.2689,2.2146,9.6534
25362.0,-4.2258,2.1763,9.6247
25372.0,-4.2234,2.0614,9.7133
25382.0,-4.0486,2.0159,9.5289
25392.0,-3.9289,1.9345,9.335
25402.0,-3.9073,1.6975,9.3087
25412.0,-4.1228,1.2641,9.3206
25422.0,-4.027,1.1756,9.3134
25432.0,-3.9193,1.1277,9.2751
25442.0,-3.6559,1.0678,9.1722
25452.0,-3.3806,1.0415,8.9926
25462.0,-3.0478,0.9673,8.6718
25472.0,-2.8826,0.9194,8.5521
25482.0,-2.6504,0.9361,8.3294
25492.0,-2.7725,0.9074,8.5521
25502.0,-2.7821,0.8428,8.7436
25512.0,-2.9928,0.8475,8.8466
25522.0,-3.2106,0.7757,9.2656
25532.0,-3.3351,0.5986,9.7109
25542.0,-3.4907,0.5124,9.9575
25552.0,-3.5338,0.3041,10.4196
25562.0,-3.5434,0.3208,10.4938
25572.0,-3.4979,0.3017,10.5273
25582.0,-3.3375,0.328,10.2424
25592.0,-3.3327,0.3855,10.3142
25602.0,-3.3447,0.4836,10.307
25612.0,-3.3327,0.5363,10.3022
25622.0,-3.3519,0.5866,10.3453
25632.0,-3.1196,0.6632,10.4483
25642.0,-2.7629,0.7135,10.5584
25652.0,-2.9042,0.6823,10.4842
25662.0,-3.1412,0.9313,9.9958
25672.0,-3.3878,1.0606,9.5217
25682.0,-4.1659,1.0247,9.3709
25692.0,-5.0326,0.9984,9.4379
25702.0,-5.6048,1.0295,9.7157
25712.0,-5.9999,0.9266,10.1706
25722.0,-5.9664,0.7398,10.8098
25732.0,-5.193,0.6823,11.2599
25742.0,-4.4053,0.7183,11.0421
25752.0,-3.5626,0.6512,10.9678
25762.0,-2.9521,0.5914,9.7157
25772.0,-2.5929,0.5531,8.8059
25782.0,-2.375,0.5291,7.8314
25792.0,-2.5259,0.3711,7.6543
25802.0,-3.146,0.3783,8.3749
25812.0,-3.9217,0.4812,9.2632
25822.0,-4.5203,0.668,10.1969
25832.0,-4.8147,0.9697,10.7476
25842.0,-4.7932,1.1061,10.8218
25852.0,-4.5705,1.0678,10.4986
25862.0,-4.0773,0.9409,9.7947
25872.0,-3.5338,0.9912,9.2009
25882.0,-3.1843,1.0175,8.8585
25892.0,-2.8515,1.1732,8.5976
25902.0,-2.7031,1.3623,8.2576
25912.0,-2.7701,1.4102,8.4443
25922.0,-2.8683,1.3791,8.3773
25932.0,-3.1747,1.4605,8.7819
25942.0,-3.2968,1.6233,8.8178
25952.0,-3.3543,1.6089,8.8921
25962.0,-3.1005,1.6759,8.825
25972.0,-2.7677,1.7047,8.4994
25982.0,-2.739,1.664,8.2361
25992.0,-2.7988,1.573,8.2289
26002.0,-2.8659,1.5969,8.3462
26012.0,-3.146,1.64,8.77
26022.0,-3.4237,1.561,9.3278
26032.0,-3.7397,1.391,9.6702
26042.0,-3.8978,1.2258,10.2759
26052.0,-3.972,1.1875,10.1323
26062.0,-3.7972,1.1396,9.8785
26072.0,-3.6823,1.0989,9.4403
26082.0,-3.6129,1.0822,9.1961
26092.0,-3.6751,0.9625,8.9759
26102.0,-3.7972,1.0056,9.3541
26112.0,-3.9193,0.8811,9.6031
26122.0,-4.1731,0.7446,9.7971
26132.0,-4.458,0.7183,10.228
26142.0,-4.628,0.6536,10.3214
26152.0,-4.7573,0.7063,10.3406
26162.0,-4.7669,0.6345,10.2951
26172.0,-4.5729,0.5124,9.8617
26182.0,-4.1372,0.5171,9.6869
26192.0,-3.7445,0.4357,9.2464
26202.0,-3.8116,0.3711,9.1123
26212.0,-4.2593,0.3017,8.7604
26222.0,-4.5442,0.4405,8.8705
26232.0,-4.5777,0.6321,8.8346
26242.0,-4.7453,0.7853,9.1171
26252.0,-5.0302,0.8404,9.4858
26262.0,-5.2529,0.7326,9.7324
26272.0,-5.3439,0.6991,9.8474
26282.0,-5.0374,0.723,9.663
26292.0,-4.5969,0.8571,8.8849
26302.0,-4.0031,1.1085,8.0756
26312.0,-3.7924,1.0415,7.7907
26322.0,-3.9959,1.0223,8.3127
26332.0,-4.4652,1.0175,8.8059
26342.0,-4.9081,1.0463,9.2799
26352.0,-4.8147,1.3312,9.323
26362.0,-4.4077,1.5706,8.9711
26372.0,-4.0797,1.6831,8.5473
26382.0,-3.8714,1.6759,8.2648
26392.0,-3.8978,1.731,8.6526
26402.0,-3.8954,1.8675,9.2512
26412.0,-4.0989,1.7573,9.8306
26422.0,-4.3694,1.6999,10.0054
26432.0,-4.1683,1.8627,9.8928
26442.0,-4.0797,1.8196,9.5864
26452.0,-4.0151,1.9106,9.2368
26462.0,-3.9073,1.968,8.9136
26472.0,-3.5961,2.2338,8.7029
26482.0,-3.1867,2.4062,8.6957
26492.0,-3.2058,2.6504,8.6503
26502.0,-3.735,2.545,8.9016
26512.0,-4.3407,2.5426,9.1578
26522.0,-4.7022,2.2266,9.5217
26532.0,-4.7812,2.2098,9.8833
26542.0,-4.707,2.2936,10.0748
26552.0,-4.4269,2.1907,9.8857
26562.0,-4.4101,2.0399,9.3709
26572.0,-4.3598,1.8938,8.8538
26582.0,-4.561,1.5897,8.746
26592.0,-4.6878,1.3862,9.1051
26602.0,-4.8602,1.2953,9.5744
26612.0,-5.0901,1.1947,10.173
26622.0,-4.9919,1.257,10.3741
26632.0,-4.7333,1.1995,10.3286
26642.0,-4.3622,1.1277,9.9551
26652.0,-3.814,1.2402,9.3494
26662.0,-3.6248,1.0774,8.5449
26672.0,-3.5554,1.1037,8.5952
26682.0,-3.474,1.3192,8.4851
26692.0,-3.6368,1.4413,8.9064
26702.0,-3.7421,1.4844,9.4523
26712.0,-3.9193,1.6424,9.7109
26722.0,-3.9049,1.573,9.9527
26732.0,-3.8666,1.5778,9.7995
26742.0,-3.7254,1.5562,9.675
26752.0,-3.6344,1.6281,9.4691
26762.0,-3.4955,1.5562,9.4379
26772.0,-3.5602,1.6664,9.5337
26782.0,-3.5554,1.64,9.7564
26792.0,-3.5147,1.731,9.6822
26802.0,-3.474,1.6831,9.584
26812.0,-3.4907,1.5874,9.5792
26822.0,-3.6009,1.6831,9.4954
26832.0,-3.7876,1.6233,9.5098
26842.0,-3.7757,1.7358,9.5505
26852.0,-3.9169,1.6927,9.8665
26862.0,-4.0294,1.6688,9.8306
26872.0,-3.9911,1.5921,9.8881
26882.0,-3.8235,1.5299,9.7947
26892.0,-3.7876,1.4413,9.7707
26902.0,-3.7469,1.4916,9.4739
26912.0,-3.7637,1.4198,9.3254
26922.0,-3.7972,1.2881,9.2656
26932.0,-3.8188,1.1875,9.3685
26942.0,-3.4836,1.1349,9.5337
26952.0,-3.644,1.0463,9.6462
26962.0,-4.1539,0.9984,9.6989
26972.0,-4.7142,0.9864,9.7731
26982.0,-5.205,0.8021,10.4818
26992.0,-4.8746,0.747,10.5153
27002.0,-4.5203,0.6273,10.7188
27012.0,-3.9696,0.5339,10.2592
27022.0,-3.6895,0.4405,9.8402
27032.0,-3.6224,0.4118,9.1674
27042.0,-3.5314,0.4908,8.9591
27052.0,-3.6631,0.6153,8.8538
27062.0,-3.79,0.7063,8.8298
27072.0,-3.8642,0.8284,9.0501
27082.0,-3.8164,1.0199,9.1195
27092.0,-3.8188,1.1013,9.3326
27102.0,-3.9361,1.0104,9.584
27112.0,-3.869,0.8811,9.9383
27122.0,-3.7397,0.8954,9.9096
27132.0,-3.6775,0.8859,9.651
27142.0,-3.4907,0.8547,9.244
27152.0,-3.3902,0.7422,9.1842
27162.0,-3.4955,0.7733,9.1243
27172.0,-3.6799,0.589,9.2105
27182.0,-3.8954,0.4357,9.6031
27192.0,-3.8451,0.3208,9.7923
27202.0,-3.7757,0.1508,9.9647
27212.0,-3.6272,0.1101,10.0197
27222.0,-3.3279,0.2131,9.7444
27232.0,-3.0382,0.2849,9.3398
27242.0,-2.6408,0.2897,8.6718
27252.0,-2.4373,0.1484,8.2504
27262.0,-2.5929,0.0527,8.3127
27272.0,-2.9305,0.0024,8.7173
27282.0,-3.2537,0.1604,9.6055
27292.0,-3.4237,0.3304,10.1299
27302.0,-3.5027,0.3735,10.5896
27312.0,-3.462,0.3208,10.6015
27322.0,-3.2034,0.2562,10.3358
27332.0,-3.0311,0.2155,9.9383
27342.0,-2.8874,0.1532,9.5361
27352.0,-2.8299,0.249,9.2751
27362.0,-2.8371,0.4477,9.3709
27372.0,-2.9497,0.4788,9.7324
27382.0,-3.2513,0.6105,10.082
27392.0,-3.395,0.6608,10.307
27402.0,-3.3136,0.6967,10.6111
27412.0,-3.1819,0.8595,10.5656
27422.0,-3.2034,0.8954,10.3645
27432.0,-3.2753,0.9409,10.1634
27442.0,-3.2729,0.8523,10.0293
27452.0,-3.2681,0.929,9.9359
27462.0,-3.4524,0.8954,9.9719
27472.0,-3.8451,0.9266,10.2304
27482.0,-4.0582,1.0175,10.7452
27492.0,-4.4101,1.008,11.6885
27502.0,-4.5083,1.1803,11.8034
27512.0,-4.3335,1.1827,11.6502
27522.0,-3.9911,1.2474,11.0923
27532.0,-3.4357,1.1612,10.4579
27542.0,-2.6217,1.1372,9.7085
27552.0,-2.466,1.0271,9.007
27562.0,-2.9664,1.0558,8.4731
27572.0,-2.8012,1.3455,8.1499
27582.0,-2.9257,1.4988,8.4467
27592.0,-3.565,1.4724,8.8538
27602.0,-4.4365,1.403,9.4595
27612.0,-5.0685,1.166,10.0221
27622.0,-5.4085,1.1085,10.6231
27632.0,-5.2289,1.3336,10.8745
27642.0,-5.0326,1.2641,10.4914
27652.0,-4.5538,1.1516,10.1155
27662.0,-3.7086,1.0247,9.244
27672.0,-3.1627,0.893,8.7173
27682.0,-2.5977,0.984,8.0373
27692.0,-2.3296,1.0175,7.853
27702.0,-2.1045,1.0008,7.7716
27712.0,-2.241,1.0582,7.8937
27722.0,-2.5474,1.1085,8.1834
27732.0,-2.7988,1.2761,8.339
27742.0,-2.9904,1.6209,8.5736
27752.0,-3.237,1.7454,8.8035
27762.0,-3.5458,1.6879,8.9208
27772.0,-3.8738,1.64,9.0477
27782.0,-4.2641,1.5562,9.3158
27792.0,-4.616,1.3862,9.4978
27802.0,-4.7525,1.3168,9.9311
27812.0,-4.6998,1.1492,10.3382
27822.0,-4.6448,1.1133,10.1059
27832.0,-4.458,1.1157,9.8617
27842.0,-4.1946,1.0654,9.4236
27852.0,-3.7709,1.0367,9.1051
27862.0,-3.4093,0.9673,8.9854
27872.0,-3.2944,0.9098,8.6263
27882.0,-3.1077,0.9146,8.6431
27892.0,-2.9233,0.8643,8.6574
27902.0,-2.8395,0.8906,8.7987
27912.0,-2.8419,0.9122,8.7317
27922.0,-2.806,0.9912,8.6814
27932.0,-2.9185,0.9505,8.6167
27942.0,-3.1939,0.8859,8.9663
27952.0,-3.4261,0.8715,9.2488
27962.0,-3.5745,0.7925,9.6774
27972.0,-3.4931,0.8092,9.821
27982.0,-3.5674,0.8116,9.9479
27992.0,-3.4836,0.7805,9.9551
28002.0,-3.4022,0.7446,9.9072
28012.0,-3.2154,0.759,9.675
28022.0,-3.2082,0.7326,9.754
28032.0,-3.2633,0.6416,9.7157
28042.0,-3.316,0.6321,9.7061
28052.0,-3.6559,0.6345,9.7659
28062.0,-3.8259,0.5914,10.1275
28072.0,-4.0917,0.5555,10.477
28082.0,-4.2737,0.6153,10.6446
28092.0,-4.2521,0.6488,10.8912
28102.0,-4.2521,0.6297,10.738
28112.0,-4.3479,0.5578,10.5632
28122.0,-4.2473,0.5195,10.307
28132.0,-4.0079,0.6057,10.1658
28142.0,-3.9217,0.5459,10.1251
28152.0,-3.3878,0.6488,9.9766
28162.0,-3.4788,0.6081,9.8067
28172.0,-4.1515,0.4334,9.754
28182.0,-4.4317,0.3567,9.6534
28192.0,-4.4221,0.2729,10.0341
28202.0,-4.3048,0.2705,9.8952
28212.0,-4.8123,0.1963,10.1993
28222.0,-5.1763,0.1748,10.2137
28232.0,-5.2002,0.0144,10.3334
28242.0,-4.7285,-0.0335,10.3334
28252.0,-4.2066,0.0335,9.8426
28262.0,-3.5817,-0.0814,9.4786
28272.0,-2.7222,-0.1149,8.8418
28282.0,-2.3104,-0.2274,8.4683
28292.0,-2.2529,-0.3687,8.193
28302.0,-2.3846,-0.4812,8.3725
28312.0,-2.7557,-0.7087,8.6957
28322.0,-3.134,-0.8523,9.3398
28332.0,-3.5314,-0.7925,9.7779
28342.0,-3.9504,-0.668,10.2568
28352.0,-4.1851,-0.4549,10.2783
28362.0,-4.1515,-0.3448,10.2041
28372.0,-3.9049,-0.1413,9.6726
28382.0,-3.4405,0.1245,8.9495
28392.0,-3.0718,0.4477,8.3845
28402.0,-2.897,0.6512,8.0589
28412.0,-2.7988,0.9577,7.9272
28422.0,-2.8659,1.1349,8.0493
28432.0,-2.9904,1.221,8.5066
28442.0,-3.0789,1.2426,9.007
28452.0,-3.2561,1.3408,9.5457
28462.0,-3.3567,1.2402,9.7276
28472.0,-3.3399,1.3168,9.7085
28482.0,-3.2801,1.2953,9.5002
28492.0,-3.0694,1.4006,9.1459
28502.0,-2.8252,1.3671,8.7293
28512.0,-2.727,1.3934,8.8083
28522.0,-2.6839,1.4581,8.9256
28532.0,-2.7797,1.6352,9.0573
28542.0,-2.7892,1.6664,9.3925
28552.0,-2.8539,1.7789,9.6007
28562.0,-2.9066,1.9249,9.6295
28572.0,-2.8994,2.0327,9.6175
28582.0,-2.7821,2.0734,9.1722
28592.0,-2.6983,2.1931,9.5984
28602.0,-2.6815,2.1931,9.596
28612.0,-2.6959,2.2458,9.675
28622.0,-2.8515,2.3798,9.8138
28632.0,-3.0813,2.5331,9.9407
28642.0,-3.213,2.6312,10.173
28652.0,-3.3351,2.5857,10.3549
28662.0,-3.4764,2.5498,10.5369
28672.0,-3.462,2.3727,10.7787
28682.0,-3.2848,2.3128,10.9726
28692.0,-2.6432,2.3655,10.7787
28702.0,-2.3583,2.3487,10.41
28712.0,-2.4253,2.3008,10.0245
28722.0,-2.5259,2.2122,9.5217
28732.0,-2.6743,2.0399,9.3518
28742.0,-3.2825,1.9632,9.4451
28752.0,-4.3239,1.8004,9.8617
28762.0,-4.7956,1.7142,10.1011
28772.0,-4.9321,1.5467,10.3046
28782.0,-5.1667,1.2833,10.5776
28792.0,-5.2241,1.257,10.817
28802.0,-4.719,1.2785,10.7141
28812.0,-3.9097,1.257,10.41
28822.0,-3.0191,1.4365,9.7133
28832.0,-2.0853,1.5107,8.7005
28842.0,-1.2665,1.4676,7.6088
28852.0,-1.3838,1.3623,7.4316
28862.0,-1.7885,1.3767,7.8099
28872.0,-2.3463,1.5083,8.3342
28882.0,-3.0598,1.6185,8.9711
28892.0,-3.5961,1.8004,9.3972
28902.0,-4.0821,1.7095,9.8354
28912.0,-4.4293,1.4916,10.0556
28922.0,-4.5801,1.3479,10.0293
28932.0,-4.3934,1.3527,9.8402
28942.0,-4.0773,1.3072,9.7181
28952.0,-3.7996,1.0846,9.2727
28962.0,-3.6895,0.9577,8.9208
28972.0,-3.735,0.7278,8.7867
28982.0,-3.7828,0.5626,8.9112
28992.0,-3.9504,0.6057,9.2751
29002.0,-4.0534,0.7446,9.4786
29012.0,-3.9145,0.8667,9.5936
29022.0,-3.7661,0.6464,9.3901
29032.0,-3.6559,0.6512,9.2392
29042.0,-3.5123,0.7326,8.9783
29052.0,-3.6512,0.4812,9.0525
29062.0,-3.383,0.3735,9.1961
29072.0,-3.1795,0.4645,9.0405
29082.0,-3.0526,0.34,8.8633
29092.0,-3.0622,0.2203,8.9399
29102.0,-3.1101,0.1341,9.1171
29112.0,-3.4022,0.1101,9.3757
29122.0,-3.6296,0.1532,9.7181
29132.0,-3.6679,0.4142,10.0628
29142.0,-3.9145,0.4286,10.2544
29152.0,-4.0941,0.4932,10.6494
29162.0,-4.0797,0.4549,10.6853
29172.0,-4.1492,0.4573,10.7284
29182.0,-4.1563,0.4046,10.671
29192.0,-4.2521,0.4429,10.5943
29202.0,-4.3024,0.4046,10.5608
29212.0,-3.9456,0.4525,10.5584
29222.0,-3.3758,0.4693,10.58
29232.0,-3.4979,0.3567,10.5177
29242.0,-3.9576,0.2777,10.2735
29252.0,-4.2952,0.3663,10.0748
29262.0,-4.5801,0.4741,9.9958
29272.0,-5.0518,0.5315,10.1227
29282.0,-5.2744,0.6847,10.0197
29292.0,-5.5522,0.5794,10.2807
29302.0,-5.4516,0.4788,10.1011
29312.0,-5.1044,0.3735,10.1011
29322.0,-4.786,0.1939,9.9072
29332.0,-4.312,0.2442,9.9288
29342.0,-3.4141,0.3136,9.3757
29352.0,-2.6959,0.3065,9.0692
29362.0,-2.2362,0.261,8.4276
29372.0,-2.0566,0.1604,8.0876
29382.0,-2.3631,0.0359,8.2791
29392.0,-2.9329,-0.1197,8.7029
29402.0,-3.4668,-0.079,9.2751
29412.0,-4.2377,-0.0335,10.1035
29422.0,-4.6424,0.0311,10.3741
29432.0,-4.7214,0.1604,10.5153
29442.0,-4.47,0.3735,10.3525
29452.0,-4.142,0.4477,9.8497
29462.0,-4.0079,0.3232,9.4523
29472.0,-3.802,0.4908,9.0668
29482.0,-3.462,0.8188,8.6119
29492.0,-3.0574,1.1564,8.351
29502.0,-2.8922,1.3431,8.2001
29512.0,-2.7916,1.5131,8.2337
29522.0,-2.7509,1.5754,8.169
29532.0,-2.7222,1.5275,8.2217
29542.0,-2.7845,1.4988,8.2696
29552.0,-2.7821,1.5419,8.5593
29562.0,-2.6959,1.5706,8.7029
29572.0,-2.6767,1.6424,8.9519
29582.0,-2.5522,1.6305,9.0118
29592.0,-2.4804,1.6424,8.8825
29602.0,-2.4445,1.7789,8.8729
29612.0,-2.6695,1.8842,8.9399
29622.0,-2.8946,2.0159,9.0597
29632.0,-3.0574,2.1165,9.5193
29642.0,-3.2729,2.2386,10.0293
29652.0,-3.5171,2.4205,10.3837
29662.0,-3.6966,2.557,10.6829
29672.0,-3.6033,2.6264,10.7141
29682.0,-3.4405,2.5402,10.4531
29692.0,-3.3303,2.6336,10.3741
29702.0,-3.292,2.7294,10.1394
29712.0,-3.2346,2.9137,10.4698
29722.0,-2.7797,3.0358,10.4148
29732.0,-2.3463,3.1053,10.4124
29742.0,-2.5163,2.9185,9.8976
29752.0,-2.8706,2.7821,9.2512
29762.0,-3.893,2.5019,9.3254
29772.0,-5.3175,2.2745,9.7252
29782.0,-6.4212,2.2051,10.659
29792.0,-6.8474,2.3391,11.5975
29802.0,-6.9887,2.1787,12.56
29812.0,-6.7301,1.8747,12.6965
29822.0,-6.2441,1.6712,12.3134
29832.0,-4.9321,1.7645,10.5345
29842.0,-3.3255,1.8411,8.9591
29852.0,-2.1237,1.81,7.6638
29862.0,-1.2067,1.7741,6.6774
29872.0,-1.2665,1.8938,6.4883
29882.0,-1.6688,1.9944,7.2808
29892.0,-2.138,2.1596,8.2768
29902.0,-2.8012,2.3703,9.1387
29912.0,-3.6895,2.4852,9.7731
29922.0,-4.3598,2.4421,9.8833
29932.0,-4.6232,2.4732,9.8737
29942.0,-4.5873,2.4995,9.6822
29952.0,-4.5969,2.4349,9.5577
29962.0,-4.3048,2.3415,9.3254
29972.0,-3.9433,2.1763,9.0908
29982.0,-3.8355,2.0614,8.8322
29992.0,-3.8738,1.9273,8.6143
30002.0,-3.9145,1.7885,8.5904
30012.0,-3.8403,1.7885,8.5186
30022.0,-3.7637,1.8842,8.5545
30032.0,-3.5147,2.0566,8.5904
30042.0,-3.5889,1.9776,8.6215
30052.0,-3.6559,1.8723,8.6311
30062.0,-3.5937,1.8364,8.7053
30072.0,-3.3854,1.8483,8.8442
30082.0,-3.3327,1.8771,8.9519
30092.0,-3.1771,1.901,8.8178
30102.0,-3.134,1.9273,8.7724
30112.0,-3.2537,1.7406,8.7412
30122.0,-3.5554,1.6352,9.1985
30132.0,-3.6392,1.4892,9.6223
30142.0,-3.7326,1.4078,10.1754
30152.0,-3.6081,1.3934,10.2544
30162.0,-3.6823,1.1899,10.2568
30172.0,-3.4309,1.0199,9.8761
30182.0,-3.2609,0.9098,9.7109
30192.0,-3.2681,0.7302,9.481
30202.0,-3.3567,0.6345,9.5577
30212.0,-3.5099,0.5171,9.8928
30222.0,-3.5985,0.4573,10.2137
30232.0,-3.6775,0.4908,10.331
30242.0,-3.5075,0.3591,10.2352
30252.0,-2.6456,0.4357,9.9766
30262.0,-2.4301,0.2011,9.8067
30272.0,-2.9736,0.0072,9.6367
30282.0,-3.6847,0.0431,10.3382
30292.0,-3.7972,0.1437,10.2256
30302.0,-3.8499,0.328,10.6518
30312.0,-4.1324,0.5387,10.3501
30322.0,-4.6974,0.6943,10.0892
30332.0,-4.8914,0.5674,9.9359
30342.0,-4.9608,0.2945,9.9168
30352.0,-4.8866,0.249,9.6103
30362.0,-4.8339,0.3065,9.8426
30372.0,-4.0654,0.498,9.7803
30382.0,-3.4261,0.6201,9.663
30392.0,-3.0095,0.577,9.5074
30402.0,-2.7509,0.5028,9.0764
30412.0,-2.6169,0.4501,8.5377
30422.0,-2.715,0.2586,8.5808
30432.0,-3.2106,0.2921,9.019
30442.0,-3.5793,0.3208,9.6343
30452.0,-3.9792,0.4405,10.2927
30462.0,-4.2545,0.656,10.5848
30472.0,-4.1731,0.7997,10.3382
30482.0,-4.2114,0.8691,10.0987
30492.0,-3.9313,0.8787,9.7444
30502.0,-3.565,1.0127,9.1722
30512.0,-3.3926,1.087,8.7484
30522.0,-3.2465,1.0487,8.7795
30532.0,-2.9401,1.1827,8.6215
30542.0,-2.6288,1.2402,8.6024
30552.0,-2.2865,1.4006,8.588
30562.0,-2.1715,1.312,8.4276
30572.0,-1.9848,1.3647,8.3893
30582.0,-1.9489,1.4437,8.102
30592.0,-2.0638,1.4796,8.2121
30602.0,-2.4014,1.5323,8.5736
30612.0,-2.4253,1.5969,8.8298
30622.0,-2.4469,1.7142,9.2033
30632.0,-2.6145,1.6041,9.3111
30642.0,-2.727,1.6592,9.4595
30652.0,-2.7557,1.7095,9.505
30662.0,-2.8132,1.7406,9.6367
30672.0,-2.8371,1.834,9.6031
30682.0,-2.7007,1.9154,9.5241
30692.0,-2.7414,2.0518,9.5193
30702.0,-2.8778,2.0614,9.5936
30712.0,-3.0694,2.0399,9.6295
30722.0,-3.3974,1.9249,9.9383
30732.0,-3.723,1.8172,10.3166
30742.0,-3.9049,1.6448,10.9607
30752.0,-3.972,1.4916,11.0899
30762.0,-3.9959,1.4892,11.4012
30772.0,-3.5913,1.336,11.2647
30782.0,-2.7126,1.3503,10.9918
30792.0,-2.0877,1.2546,10.2999
30802.0,-1.9465,1.2546,9.4834
30812.0,-2.2075,1.2115,9.0142
30822.0,-3.383,0.8045,9.3685
30832.0,-4.9321,0.5578,9.9455
30842.0,-6.2177,0.644,10.8769
30852.0,-6.8761,0.8643,11.8657
30862.0,-6.8546,0.8523,12.5049
30872.0,-6.6822,0.565,12.56
30882.0,-5.6216,0.6225,11.5089
30892.0,-4.1755,0.6512,10.0078
30902.0,-2.6432,0.7374,8.0541
30912.0,-1.7214,0.7829,6.9983
30922.0,-1.4916,0.6871,6.3782
30932.0,-1.6927,0.5722,7.2401
30942.0,-2.1428,0.6584,8.3318
30952.0,-2.9712,0.5028,9.6031
30962.0,-3.6416,0.7159,10.3262
30972.0,-4.2329,0.7973,10.6279
30982.0,-4.5298,0.7278,10.6111
30992.0,-4.4652,0.565,10.2041
31002.0,-4.3407,0.5626,9.9934
31012.0,-3.9887,0.5171,9.5409
31022.0,-3.802,0.395,9.414
31032.0,-3.5219,0.2059,8.995
31042.0,-3.6464,0.1628,9.0621
31052.0,-3.5865,-0.0551,9.0621
31062.0,-3.4189,-0.1197,9.2249
31072.0,-3.4141,-0.067,9.2512
31082.0,-3.3591,-0.0287,9.2536
31092.0,-3.2777,-0.0215,9.3015
31102.0,-3.1388,-0.1867,9.1435
31112.0,-2.9305,-0.1125,8.8897
31122.0,-2.8539,-0.0694,8.8035
31132.0,-2.9544,-0.0886,8.7005
31142.0,-2.9784,0.0551,8.9854
31152.0,-3.1292,0.067,9.3254
31162.0,-3.4165,0.0503,9.6055
31172.0,-3.5865,0.0575,10.0868
31182.0,-3.9145,-0.0048,10.5082
31192.0,-4.0414,-0.0096,10.7164
31202.0,-4.0654,0.0287,10.8912
31212.0,-3.8116,0.0599,10.6255
31222.0,-3.5171,0.079,10.1155
31232.0,-3.2968,0.1365,9.6414
31242.0,-3.3399,0.1125,9.3422
31252.0,-3.4836,0.1484,9.5265
31262.0,-3.7517,0.1915,9.8761
31272.0,-4.1587,0.1796,10.5249
31282.0,-4.5801,0.1221,11.0899
31292.0,-4.9153,0.1173,11.303
31302.0,-4.9632,0.0431,11.2863
31312.0,-4.719,0.103,10.9607
31322.0,-4.1779,0.2394,10.3932
31332.0,-3.8068,0.3711,9.9479
31342.0,-3.7589,0.5219,9.6007
31352.0,-3.7876,0.8188,9.1866
31362.0,-4.1707,0.8667,8.9088
31372.0,-4.5681,0.9074,8.6622
31382.0,-5.3439,0.7135,9.347
31392.0,-5.6024,0.6967,9.6965
31402.0,-5.9664,0.6823,10.1394
31412.0,-6.1028,0.6823,10.4794
31422.0,-5.2912,0.7422,10.4076
31432.0,-4.4772,0.8116,9.8881
31442.0,-3.9217,0.7853,9.0477
31452.0,-3.3662,0.8045,8.1116
31462.0,-2.9664,0.7039,7.4819
31472.0,-3.0742,0.5267,7.3837
31482.0,-3.2322,0.4908,7.6926
31492.0,-3.6559,0.668,8.011
31502.0,-4.2617,0.8045,8.6263
31512.0,-4.6926,0.8284,9.1818
31522.0,-4.8722,0.8595,9.5193
31532.0,-4.6711,0.984,9.6486
31542.0,-4.6448,1.0487,9.4667
31552.0,-4.5203,1.1564,9.0932
31562.0,-4.1084,1.4269,8.4587
31572.0,-3.711,1.5874,8.1259
31582.0,-3.4046,1.6257,8.0134
31592.0,-3.2729,1.5802,7.9655
31602.0,-3.3758,1.5083,7.75
31612.0,-3.5698,1.4341,8.339
31622.0,-3.4237,1.5395,8.8681
31632.0,-3.5123,1.3886,9.1291
31642.0,-3.4955,1.2881,9.4571
31652.0,-3.3327,1.1588,9.3829
31662.0,-2.9353,1.1349,8.9591
31672.0,-2.6264,1.2402,8.4204
31682.0,-2.5402,1.3455,8.1882
31692.0,-2.5594,1.4365,8.4108
31702.0,-2.7342,1.5778,8.825
31712.0,-2.8467,1.798,9.2823
31722.0,-3.0382,2.0327,9.7995
31732.0,-3.1747,2.0159,10.0772
31742.0,-3.0885,1.8603,10.3789
31752.0,-3.0478,1.8244,10.2831
31762.0,-3.122,1.7909,10.0868
31772.0,-3.0742,1.7693,10.094
31782.0,-2.8443,1.9369,9.9886
31792.0,-2.6552,2.2146,9.8114
31802.0,-2.6791,2.4014,9.5529
31812.0,-2.7653,2.2386,9.3302
31822.0,-2.4924,2.2625,9.5361
31832.0,-2.7342,2.2913,9.7636
31842.0,-2.9353,2.2889,10.1682
31852.0,-3.0502,2.1883,10.6686
31862.0,-3.1268,2.0518,11.3126
31872.0,-3.4477,1.9178,11.6813
31882.0,-3.1316,1.743,11.2767
31892.0,-2.3367,1.6879,10.8314
31902.0,-1.9441,1.561,10.2855
31912.0,-2.4205,1.1468,9.8713
31922.0,-3.4429,0.8332,10.0652
31932.0,-4.0294,0.6871,10.4555
31942.0,-4.6424,0.8116,10.9702
31952.0,-5.3032,0.8978,11.4467
31962.0,-5.7197,0.9026,11.7029
31972.0,-5.7197,0.7518,11.6789
31982.0,-5.3343,0.5938,11.406
31992.0,-4.5945,0.6608,10.7715
32002.0,-3.3351,0.7446,9.2368
32012.0,-2.7461,0.838,8.6119
32022.0,-2.2793,0.6057,8.0565
32032.0,-1.8962,0.7709,7.6471
32042.0,-1.8124,1.0127,7.7405
32052.0,-2.3655,1.1444,8.3893
32062.0,-2.9688,1.1205,9.4499
32072.0,-3.5985,1.0774,9.9766
32082.0,-4.2904,0.972,10.7452
32092.0,-4.8004,0.905,10.963
32102.0,-4.7812,1.1492,11.1833
32112.0,-4.4772,1.3216,10.8936
32122.0,-4.2353,1.1875,10.5058
32132.0,-3.8642,1.1253,9.9455
32142.0,-3.5051,0.8428,9.2871
32152.0,-3.2202,0.7111,8.667
32162.0,-3.1987,0.6584,8.4491
32172.0,-3.6751,0.5435,8.7221
32182.0,-3.869,0.4094,9.3326
32192.0,-3.8307,0.5148,9.7899
32202.0,-3.8642,0.4214,9.9934
32212.0,-3.7972,0.3376,10.1083
32222.0,-3.7852,0.1077,10.0341
32232.0,-3.9648,-0.0024,9.8234
32242.0,-3.7972,0.2897,9.2009
32252.0,-3.6919,0.4214,8.849
32262.0,-3.5985,0.4812,8.7077
32272.0,-3.5698,0.4238,8.7245
32282.0,-3.7589,0.395,9.0429
32292.0,-3.948,0.1844,9.2703
32302.0,-4.2066,0.1604,9.7061
32312.0,-4.2066,0.1772,9.9814
32322.0,-4.3311,0.0958,9.8258
32332.0,-4.2401,0.0575,9.8162
32342.0,-4.1013,0.0766,9.7037
32352.0,-3.984,-0.0215,9.5122
32362.0,-4.0941,-0.2203,9.5768
32372.0,-4.1731,-0.0886,9.5026
32382.0,-4.2114,0.0359,9.742
32392.0,-4.3287,0.158,9.9886
32402.0,-4.4867,0.1413,10.1347
32412.0,-4.5921,0.1963,10.0868
32422.0,-4.5945,0.1389,9.8833
32432.0,-4.5514,0.0144,9.7899
32442.0,-4.3479,0.1125,9.6558
32452.0,-3.9433,0.182,9.6941
32462.0,-3.5123,0.2179,9.8426
32472.0,-3.5841,0.2825,9.8354
32482.0,-3.9121,0.3567,9.6151
32492.0,-4.5226,0.4214,9.4954
32502.0,-4.9823,0.4046,9.4116
32512.0,-5.4372,0.2873,9.6175
32522.0,-6.0047,0.2251,10.0868
32532.0,-6.1244,0.3567,10.6207
32542.0,-6.0047,0.3543,10.9415
32552.0,-5.9544,0.2825,10.7428
32562.0,-5.4827,0.2418,10.3908
32572.0,-4.4532,0.498,9.1985
32582.0,-3.6655,0.3591,8.3869
32592.0,-3.0789,0.3663,7.5729
32602.0,-2.8395,0.3017,7.2257
32612.0,-2.9616,0.1724,7.4531
32622.0,-3.4644,0.0622,8.248
32632.0,-4.0318,0.0527,9.3589
32642.0,-4.7788,-0.1006,10.2663
32652.0,-5.5186,0.0503,10.963
32662.0,-5.7796,0.2394,10.9343
32672.0,-5.7461,0.316,10.4244
32682.0,-5.5809,0.4693,9.8809
32692.0,-5.2385,0.5459,9.2775
32702.0,-5.1116,0.7422,9.2249
32712.0,-4.9321,0.8978,9.1482
32722.0,-4.8363,0.9625,9.2249
32732.0,-4.707,0.8236,9.7444
32742.0,-4.288,0.7159,9.2775
32752.0,-4.1084,0.5818,9.3805
32762.0,-3.9337,0.3831,9.1099
32772.0,-3.6631,0.2945,8.655
32782.0,-3.4668,0.3112,8.418
32792.0,-3.4477,0.2346,8.3821
32802.0,-3.5003,0.2849,8.6143
32812.0,-3.7781,0.2274,9.1722
32822.0,-4.13,0.2298,9.6007
32832.0,-4.1755,0.3065,9.6462
32842.0,-4.2282,0.4381,9.7612
32852.0,-4.0294,0.668,9.6438
32862.0,-3.9289,0.8021,9.5648
32872.0,-3.8044,0.8811,9.4547
32882.0,-3.6272,0.8787,9.4475
32892.0,-3.6272,0.9266,9.4763
32902.0,-3.553,0.9122,9.5361
32912.0,-3.45,0.905,9.4691
32922.0,-3.1388,1.1564,9.2919
32932.0,-3.1173,1.154,9.1387
32942.0,-3.2226,0.9673,9.4332
32952.0,-3.2944,0.9433,9.7827
32962.0,-3.3064,0.9936,9.8617
32972.0,-3.3998,1.1468,10.173
32982.0,-3.2082,1.4724,10.3358
32992.0,-3.2441,1.5993,10.5034
33002.0,-3.0885,1.6424,10.7978
33012.0,-2.9616,1.5227,10.7284
33022.0,-2.6959,1.5323,10.4627
33032.0,-2.2505,1.2977,9.8617
33042.0,-2.2218,1.2953,9.6151
33052.0,-2.885,1.0654,9.5912
33062.0,-3.2441,0.9601,9.6486
33072.0,-3.3543,1.0415,9.8617
33082.0,-3.6943,1.0295,10.1035
33092.0,-3.7062,0.9984,9.9575
33102.0,-3.5841,1.0798,9.6055
33112.0,-3.1292,1.0606,9.2608
33122.0,-2.8635,0.917,9.3278
33132.0,-2.6097,1.0487,9.0405
33142.0,-2.4229,1.0223,8.7436
33152.0,-2.3463,0.9936,8.746
33162.0,-2.1332,0.9553,8.8538
33172.0,-2.0806,0.9242,8.8562
33182.0,-1.9752,0.8619,8.837
33192.0,-1.8579,0.8236,8.8394
33202.0,-2.0135,0.7446,8.7149
33212.0,-2.2625,0.5938,8.8155
33222.0,-2.4181,0.6847,9.0237
33232.0,-2.727,0.8284,9.335
33242.0,-2.9257,1.0056,9.3661
33252.0,-3.1053,1.075,9.4379
33262.0,-3.2298,1.1085,9.3182
33272.0,-3.3447,0.9792,9.3134
33282.0,-3.2465,1.0271,9.4427
33292.0,-3.2633,0.8475,9.6917
33302.0,-3.1627,0.6512,9.7707
33312.0,-3.2729,0.4764,10.2208
33322.0,-2.9473,0.6393,10.1849
33332.0,-2.6001,0.8428,9.7899
33342.0,-2.3918,0.9194,9.414
33352.0,-2.3559,0.8571,9.0142
33362.0,-2.2386,0.826,8.7987
33372.0,-2.4852,0.7709,8.849
33382.0,-2.8395,0.5938,9.007
33392.0,-2.897,0.6943,9.3565
33402.0,-2.8802,0.8691,9.8928
33412.0,-2.6528,1.1923,10.094
33422.0,-2.332,1.324,9.9551
33432.0,-2.296,1.3455,9.7157
33442.0,-1.8531,1.3384,9.2536
33452.0,-1.9585,1.1899,9.0836
33462.0,-2.229,1.0175,9.0956
33472.0,-2.1979,1.2905,9.4044
33482.0,-2.1069,1.6592,9.6343
33492.0,-2.1739,1.7549,9.6965
33502.0,-2.1907,1.8196,9.7037
33512.0,-2.1715,1.7885,9.7636
33522.0,-2.4253,1.5754,9.924
33532.0,-2.5283,1.6855,9.8881
33542.0,-2.6025,1.8411,10.1011
33552.0,-2.7892,1.8866,10.1682
33562.0,-2.6935,1.9393,10.3717
33572.0,-2.7773,1.8364,10.2352
33582.0,-2.7126,1.7095,10.1658
33592.0,-2.7605,1.6233,10.1083
33602.0,-2.8443,1.4772,10.331
33612.0,-2.9209,1.5419,10.4028
33622.0,-3.0646,1.4198,10.7739
33632.0,-3.2657,1.4964,10.9343
33642.0,-3.2537,1.5562,10.9535
33652.0,-3.1556,1.5203,11.0038
33662.0,-2.8204,1.4485,10.6542
33672.0,-2.1189,1.3647,10.252
33682.0,-1.6879,1.3168,9.8665
33692.0,-1.9824,1.2881,9.5385
33702.0,-2.5594,1.336,9.5672
33712.0,-2.9185,1.2809,9.8402
33722.0,-3.1915,1.4533,10.0963
33732.0,-3.7278,1.5371,10.343
33742.0,-4.3814,1.5275,10.7236
33752.0,-4.6974,1.415,10.7212
33762.0,-4.4532,1.3048,10.9295
33772.0,-3.8355,1.3695,10.8601
33782.0,-3.1939,1.1636,10.5273
33792.0,-2.4157,1.0822,10.0197
33802.0,-1.9632,0.9074,9.0549
33812.0,-1.6592,0.7159,8.2696
33822.0,-1.7286,0.5243,8.0804
33832.0,-2.059,0.2705,8.2911
33842.0,-2.7031,0.17,9.0118
33852.0,-3.4141,0.2538,9.517
33862.0,-3.9097,0.3184,10.1251
33872.0,-4.1899,0.2179,10.5177
33882.0,-4.0989,0.2586,10.5656
33892.0,-3.6392,0.4357,10.3453
33902.0,-3.3016,0.5626,9.6247
33912.0,-2.9497,0.7853,8.8442
33922.0,-2.5809,0.9529,8.3199
33932.0,-2.1955,1.2234,7.6782
33942.0,-2.059,1.4653,7.5441
33952.0,-2.1548,1.6855,7.8171
33962.0,-2.399,1.719,8.3701
33972.0,-2.6815,1.6735,9.0764
33982.0,-2.9616,1.5778,9.7899
33992.0,-3.0167,1.5586,10.1873
34002.0,-3.0335,1.5778,10.5417
34012.0,-2.7366,1.5874,10.2496
34022.0,-2.3607,1.6759,10.0987
34032.0,-2.0614,1.6544,9.3685
34042.0,-1.98,1.6927,9.0932
34052.0,-1.8723,1.7142,8.7891
34062.0,-1.9896,1.7262,9.4092
34072.0,-2.1452,1.7549,9.6582
34082.0,-2.3559,1.8268,10.4459
34092.0,-2.332,1.9656,10.7308
34102.0,-2.2003,1.9513,10.9463
34112.0,-2.1596,1.9489,10.8026
34122.0,-1.8914,1.9393,10.3525
34132.0,-1.7717,1.8914,10.0054
34142.0,-1.6352,1.8459,9.9072
34152.0,-1.6185,1.9752,9.8737
34162.0,-1.7837,1.9896,10.2663
34172.0,-2.0087,2.0758,10.5297
34182.0,-2.1739,2.1069,10.9128
34192.0,-2.2338,2.1093,11.2312
34202.0,-2.4373,2.162,11.3605
34212.0,-2.5833,2.1572,11.6071
34222.0,-2.5738,2.2601,11.5712
34232.0,-2.3415,2.4014,11.4132
34242.0,-2.2003,2.32,11.2599
34252.0,-1.9704,2.3152,10.7212
34262.0,-1.3455,2.3918,10.5177
34272.0,-0.9337,2.4038,10.1969
34282.0,-1.6664,2.0877,9.8952
34292.0,-2.5379,1.7549,9.8593
34302.0,-3.1436,1.6855,10.1442
34312.0,-3.9696,1.7214,10.6063
34322.0,-5.0254,1.7119,11.1426
34332.0,-5.5857,1.5897,11.461
34342.0,-5.5234,1.4485,11.4012
34352.0,-4.8267,1.4796,10.7955
34362.0,-3.7804,1.5586,9.9647
34372.0,-2.4972,1.549,8.9016
34382.0,-1.6592,1.5682,7.6303
34392.0,-1.3144,1.5706,6.8785
34402.0,-1.2043,1.6257,6.5194
34412.0,-1.5562,1.8794,6.8905
34422.0,-2.3032,2.0016,7.7069
34432.0,-3.1675,2.0039,8.4611
34442.0,-4.0893,2.0614,9.6223
34452.0,-4.7453,2.1021,9.8785
34462.0,-4.8459,2.162,10.6518
34472.0,-4.6926,2.1883,10.331
34482.0,-4.0677,2.1021,9.5816
34492.0,-3.3136,1.8842,8.4084
34502.0,-2.8874,1.664,7.8003
34512.0,-3.1101,1.336,7.446
34522.0,-3.5051,1.0989,7.7644
34532.0,-3.9504,1.1037,8.3917
34542.0,-4.1803,1.1349,9.4068
34552.0,-4.2952,1.1779,9.8737
34562.0,-4.4149,1.0822,10.1538
34572.0,-4.4843,0.917,10.4651
34582.0,-4.3287,0.7925,10.3406
34592.0,-4.0797,0.7757,9.809
34602.0,-3.7996,0.5842,9.3877
34612.0,-3.7421,0.5722,9.019
34622.0,-3.6607,0.3591,9.019
34632.0,-3.8642,0.4094,9.3901
34642.0,-3.9289,0.3879,9.7683
34652.0,-3.9241,0.3903,9.9216
34662.0,-4.1515,0.2921,10.659
34672.0,-4.1731,0.3232,10.6997
34682.0,-4.1061,0.2586,10.6925
34692.0,-3.9576,0.2298,10.5967
34702.0,-3.8235,0.1293,10.2975
34712.0,-3.8188,0.2322,10.1969
34722.0,-3.8618,0.2203,10.1011
34732.0,-4.0031,0.2945,10.3406
34742.0,-4.0294,0.431,10.4124
34752.0,-4.0773,0.4645,10.6829
34762.0,-3.8499,0.4573,10.884
34772.0,-3.2633,0.395,10.999
34782.0,-3.2346,0.4262,10.7356
34792.0,-3.3471,0.5171,10.2017
34802.0,-3.2729,0.6393,10.003
34812.0,-3.3184,0.6345,9.9551
34822.0,-3.4836,0.9122,9.7013
34832.0,-4.3096,1.0056,9.8641
34842.0,-4.7262,1.087,9.833
34852.0,-4.798,1.1301,10.1442
34862.0,-4.604,0.9457,10.3813
34872.0,-4.0199,0.8475,10.2783
34882.0,-3.2082,0.8068,10.2256
34892.0,-2.5235,0.8499,9.4427
34902.0,-1.9824,0.6776,8.6335
34912.0,-1.8435,0.4788,7.8865
34922.0,-2.0494,0.407,7.7644
34932.0,-2.3272,0.395,7.9033
34942.0,-2.9377,0.5148,8.9591
34952.0,-3.4812,0.656,9.5074
34962.0,-3.8978,0.6919,10.07
34972.0,-4.0079,0.8068,10.1873
34982.0,-3.9121,0.8428,9.9359
34992.0,-3.6081,0.8475,9.4882
35002.0,-3.2058,0.8906,8.7412
35012.0,-2.9066,0.8978,8.2289
35022.0,-2.8276,0.929,7.865
35032.0,-2.6384,1.0654,7.5657
35042.0,-2.6432,1.3791,7.6112
35052.0,-2.5881,1.3862,7.7237
35062.0,-2.5809,1.5514,7.9679
35072.0,-2.7485,1.4653,8.4731
35082.0,-2.7964,1.4317,8.983
35092.0,-2.8443,1.4676,9.2129
35102.0,-2.794,1.5778,9.2871
35112.0,-2.5929,1.5012,8.9998
35122.0,-2.4229,1.4772,8.6694
35132.0,-2.2793,1.494,8.5377
35142.0,-2.3056,1.5634,8.5497
35152.0,-2.5235,1.6664,8.8202
35162.0,-2.7869,1.6783,9.3709
35172.0,-2.9521,1.798,9.7731
35182.0,-3.1244,1.8914,10.2687
35192.0,-3.2609,1.9656,10.5656
35202.0,-3.3423,1.9848,10.7069
35212.0,-3.45,1.8579,10.5776
35222.0,-3.4668,1.9561,10.4842
35232.0,-3.3327,1.968,10.3238
35242.0,-3.3375,1.9561,10.4339
35252.0,-3.462,1.9537,10.4339
35262.0,-3.5171,1.9776,10.3717
35272.0,-3.6464,1.9321,10.6422
35282.0,-3.4189,1.9848,10.7452
35292.0,-2.9664,2.0399,10.9223
35302.0,-2.794,2.0518,10.7452
35312.0,-3.1149,1.9585,10.1179
35322.0,-3.1867,1.8747,9.5624
35332.0,-3.3902,1.8435,9.5624
35342.0,-4.0821,1.4796,9.4786
35352.0,-4.9344,1.5826,9.7731
35362.0,-5.4947,1.5921,10.2448
35372.0,-5.6671,1.7645,10.5201
35382.0,-5.8658,1.7382,10.8745
35392.0,-5.6168,1.6759,11.0445
35402.0,-4.5298,1.664,10.5417
35412.0,-3.146,1.7334,9.9647
35422.0,-2.2721,1.6831,8.7891
35432.0,-2.0279,1.5969,8.0014
35442.0,-2.0327,1.494,7.4986
35452.0,-2.2529,1.5299,7.434
35462.0,-3.0023,1.5754,8.0302
35472.0,-3.6416,1.5538,8.509
35482.0,-4.4796,1.5443,9.4763
35492.0,-5.0901,1.5131,10.3046
35502.0,-5.2218,1.4126,10.6614
35512.0,-5.1523,1.1971,10.7356
35522.0,-4.4843,1.2115,9.9838
35532.0,-3.9169,1.1564,9.1387
35542.0,-3.371,0.9888,8.1738
35552.0,-3.1987,0.7901,7.7428
35562.0,-3.2825,0.5507,7.58
35572.0,-3.6559,0.4453,7.9128
35582.0,-3.9456,0.6129,8.5641
35592.0,-4.1635,0.6153,9.4739
35602.0,-4.3455,0.6632,9.9934
35612.0,-4.4341,0.6153,10.1921
35622.0,-4.367,0.4525,10.1442
35632.0,-4.0079,0.4573,9.8306
35642.0,-3.6344,0.6009,9.3422
35652.0,-3.2992,0.5962,8.9663
35662.0,-3.2561,0.644,8.6143
35672.0,-3.3232,0.5507,8.6215
35682.0,-3.6727,0.5507,8.9926
35692.0,-4.039,0.498,9.7133
35702.0,-4.4772,0.5866,10.3597
35712.0,-4.5873,0.6321,10.8314
35722.0,-4.7238,0.7853,11.1953
35732.0,-4.6902,0.735,10.7955
35742.0,-4.5155,0.7207,10.5201
35752.0,-4.4436,0.6129,10.0987
35762.0,-4.4508,0.6129,9.8186
35772.0,-4.4197,0.5818,9.6486
35782.0,-4.2832,0.6009,9.7037
35792.0,-3.984,0.5052,9.9695
35802.0,-3.7733,0.4453,10.1825
35812.0,-4.3144,0.4477,10.3717
35822.0,-5.1499,0.4836,10.4004
35832.0,-5.0374,0.6033,10.3525
35842.0,-5.0087,0.7446,10.2544
35852.0,-5.296,0.7494,9.8641
35862.0,-5.5115,0.8452,9.5026
35872.0,-5.4827,0.759,9.2392
35882.0,-5.2696,0.8595,9.1961
35892.0,-5.0302,0.6464,9.4212
35902.0,-4.5633,0.486,9.6606
35912.0,-3.7326,0.4812,9.5409
35922.0,-2.9473,0.4477,9.1435
35932.0,-2.3727,0.3065,8.6503
35942.0,-2.0806,0.2777,8.0325
35952.0,-2.0734,0.2801,7.4603
35962.0,-2.2817,0.2466,7.343
35972.0,-2.7174,0.1532,7.7093
35982.0,-3.3878,0.2274,8.5258
35992.0,-3.8116,0.3903,9.4595
36002.0,-4.1611,0.5124,9.7229
36012.0,-4.3766,0.6488,9.9934
36022.0,-4.4724,0.6656,9.8282
36032.0,-4.3838,0.6704,9.402
36042.0,-4.2042,0.7326,9.1028
36052.0,-3.9217,0.9864,8.7412
36062.0,-3.5937,1.0032,8.6838
36072.0,-3.316,1.1085,8.442
36082.0,-3.134,1.2354,8.4132
36092.0,-3.1388,1.2402,8.4372
36102.0,-3.0167,1.1779,8.4635
36112.0,-2.9928,1.1349,8.5688
36122.0,-3.1532,1.1181,9.0764
36132.0,-3.2082,1.1372,9.2416
36142.0,-3.225,1.0582,9.5337
36152.0,-3.0885,1.1564,9.3111
36162.0,-2.9928,1.075,9.0932
36172.0,-3.0119,1.1325,8.849
36182.0,-3.0071,1.1899,8.8394
36192.0,-3.0167,1.0702,9.1889
36202.0,-3.237,1.2306,9.5265
36212.0,-3.4429,1.1803,10.0197
36222.0,-3.6464,1.2737,10.4818
36232.0,-3.6488,1.3791,10.5489
36242.0,-3.79,1.3671,10.331
36252.0,-3.7014,1.3024,10.1993
36262.0,-3.8211,1.3072,9.9934
36272.0,-4.0151,1.2857,10.0461
36282.0,-4.0606,1.2857,10.1873
36292.0,-4.1252,1.2713,10.3382
36302.0,-3.9959,1.3695,10.5512
36312.0,-3.8044,1.4269,10.6853
36322.0,-3.0694,1.5323,10.3358
36332.0,-3.0957,1.5395,9.924
36342.0,-3.8906,1.3479,9.7061
36352.0,-4.3958,1.1612,9.6558
36362.0,-4.616,1.2761,10.0844
36372.0,-5.1811,1.2665,10.5225
36382.0,-5.8754,1.3695,10.8625
36392.0,-6.2489,1.3695,11.1522
36402.0,-6.0286,1.4365,11.3318
36412.0,-5.6431,1.4916,10.975
36422.0,-5.102,1.5754,10.0341
36432.0,-4.2282,1.4509,9.2895
36442.0,-3.3782,1.3647,8.7221
36452.0,-2.5019,1.4533,8.0589
36462.0,-2.1213,1.47,7.7093
36472.0,-2.0949,1.3503,7.6591
36482.0,-2.2793,1.4605,8.1427
36492.0,-2.794,1.6113,8.7819
36502.0,-3.2513,1.8124,9.0261
36512.0,-3.6057,1.9225,9.1698
36522.0,-3.9313,1.9824,9.1722
36532.0,-4.2234,1.8747,9.0956
36542.0,-4.2904,2.0039,8.7436
36552.0,-4.3479,1.9106,8.9447
36562.0,-4.4101,1.798,8.8394
36572.0,-4.4436,1.5299,8.9088
36582.0,-4.3742,1.2881,8.9447
36592.0,-4.3072,1.1708,8.8681
36602.0,-4.1468,0.9337,8.9687
36612.0,-3.9959,0.8906,8.8107
36622.0,-3.9528,0.7925,8.5138
36632.0,-4.0414,0.6943,8.3438
36642.0,-3.9816,0.7901,8.3294
36652.0,-3.7804,0.8619,8.4898
36662.0,-3.6703,0.8116,8.6742
36672.0,-3.553,0.7207,8.691
36682.0,-3.5291,0.6057,8.6455
36692.0,-3.7493,0.5052,8.9495
36702.0,-4.0055,0.5195,9.1363
36712.0,-4.2449,0.6033,9.4188
36722.0,-4.6088,0.4357,9.8186
36732.0,-4.7836,0.3926,10.252
36742.0,-4.9799,0.3089,10.6494
36752.0,-4.9608,0.3472,10.7524
36762.0,-4.7238,0.2658,10.5656
36772.0,-4.4245,0.1867,10.2592
36782.0,-4.142,0.1389,9.7612
36792.0,-4.0989,0.1724,9.4619
36802.0,-4.1252,0.2897,9.4715
36812.0,-4.0342,0.4669,9.5792
36822.0,-4.1037,0.5387,9.8593
36832.0,-3.9385,0.7398,10.0173
36842.0,-3.5865,0.826,9.9551
36852.0,-3.7206,0.8763,9.7468
36862.0,-4.1037,1.0151,9.4978
36872.0,-4.537,1.1349,9.3972
36882.0,-5.217,1.2163,9.7229
36892.0,-5.8251,1.3862,9.8881
36902.0,-6.268,1.3216,10.2113
36912.0,-6.2872,1.1468,10.5584
36922.0,-5.6264,0.9313,10.7069
36932.0,-4.7812,0.8667,10.4315
36942.0,-3.7302,0.7685,9.6367
36952.0,-2.9736,0.7901,8.7556
36962.0,-2.5355,0.8021,7.9679
36972.0,-2.4038,0.7638,7.5537
36982.0,-2.6695,0.7661,7.6016
36992.0,-3.2968,0.7398,8.0876
37002.0,-3.8451,0.8811,8.5976
37012.0,-4.312,0.8859,9.2895
37022.0,-4.6304,0.7374,9.6151
37032.0,-4.7549,0.8212,9.6271
37042.0,-4.628,0.8978,9.5529
37052.0,-4.5633,0.7685,9.3733
37062.0,-4.4269,0.8021,9.0764
37072.0,-4.2258,0.7733,9.0094
37082.0,-4.0199,0.8523,8.9663
37092.0,-3.8044,1.0199,8.7197
37102.0,-3.5913,1.0918,8.5665
37112.0,-3.5626,1.0391,8.3893
37122.0,-3.6943,1.0558,8.406
37132.0,-3.7637,1.1564,8.3773
37142.0,-3.8331,1.1779,8.5808
37152.0,-3.9648,1.0822,8.8777
37162.0,-4.027,1.1277,9.3254
37172.0,-3.8882,1.0942,9.402
37182.0,-3.5793,1.0726,9.3374
37192.0,-3.5243,0.7853,9.0453
37202.0,-3.699,0.4286,8.8921
37212.0,-3.9361,0.3112,9.3206
37222.0,-4.1348,0.4238,9.7468
37232.0,-4.3742,0.5483,10.149
37242.0,-4.616,0.5267,10.6159
37252.0,-4.6376,0.5195,10.5273
37262.0,-4.4843,0.4908,10.4076
37272.0,-4.2713,0.5626,10.0724
37282.0,-4.1324,0.6464,9.845
37292.0,-4.0103,0.656,9.5265
37302.0,-3.9241,0.7494,9.3661
37312.0,-3.8571,0.917,9.4092
37322.0,-4.0007,1.1588,9.651
37332.0,-4.6064,1.1229,9.7133
37342.0,-5.2792,1.0367,9.8474
37352.0,-5.612,0.7757,9.6582
37362.0,-5.5258,0.6608,9.6798
37372.0,-5.0637,0.9792,9.347
37382.0,-4.798,1.4269,9.3757
37392.0,-4.3934,1.2186,9.4954
37402.0,-4.0869,1.1444,9.1746
37412.0,-4.0199,1.2091,8.8921
37422.0,-4.0941,1.3216,8.5736
37432.0,-4.039,1.5347,8.1882
37442.0,-3.9959,1.719,8.2001
37452.0,-4.3958,1.9201,8.4563
37462.0,-4.8147,1.9561,8.9783
37472.0,-5.0685,1.9513,9.4332
37482.0,-5.4061,1.8651,9.9216
37492.0,-5.4396,1.9369,9.9
37502.0,-5.3654,1.7885,9.8761
37512.0,-4.9991,1.8244,9.0429
37522.0,-4.7884,1.7358,8.8442
37532.0,-4.5514,1.6927,8.6263
37542.0,-4.3048,1.81,8.6646
37552.0,-4.4843,1.7454,8.928
37562.0,-4.3718,1.8292,8.7005
37572.0,-4.47,1.9225,8.7747
37582.0,-4.3287,2.1404,8.6239
37592.0,-4.5657,2.0446,9.0022
37602.0,-4.7932,1.8962,9.4954
37612.0,-4.8866,1.9489,9.493
37622.0,-4.7597,1.8771,9.4954
37632.0,-4.3527,1.834,9.0884
37642.0,-4.0079,1.8771,8.6646
37652.0,-3.9816,1.8866,8.7221
37662.0,-4.0031,1.7406,9.0046
37672.0,-4.2784,1.7502,9.4667
37682.0,-4.446,1.7957,9.912
37692.0,-4.5083,1.822,10.1203
37702.0,-4.3167,1.7717,10.2137
37712.0,-4.1156,1.6616,9.9527
37722.0,-3.9385,1.5107,9.6869
37732.0,-3.7517,1.47,9.3302
37742.0,-3.6081,1.561,9.0884
37752.0,-3.3686,1.561,8.8514
37762.0,-3.292,1.5826,8.8873
37772.0,-3.3495,1.6137,8.8849
37782.0,-3.4117,1.6927,9.1123
37792.0,-3.7134,1.8986,9.4499
37802.0,-3.8978,1.9752,9.5289
37812.0,-4.0342,2.0327,9.5744
37822.0,-3.984,2.0925,9.6247
37832.0,-3.8379,2.0303,9.4403
37842.0,-3.6631,2.0758,9.3182
37852.0,-3.4812,2.1213,9.1937
37862.0,-3.4477,2.0853,9.0644
37872.0,-3.4046,2.1452,9.0668
37882.0,-3.5698,2.0973,9.2727
37892.0,-3.8403,1.9728,9.6127
37902.0,-4.0318,2.059,9.9766
37912.0,-4.2282,2.0925,10.0485
37922.0,-4.1851,2.0734,10.0533
37932.0,-3.7972,2.0566,9.6678
37942.0,-3.7182,2.0758,9.3805
37952.0,-3.4931,2.0542,9.153
37962.0,-3.3423,2.0901,9.098
37972.0,-3.4189,2.15,9.2009
37982.0,-3.3734,2.3391,9.1195
37992.0,-3.4022,2.3631,9.2871
38002.0,-3.3303,2.411,9.1291
38012.0,-3.2944,2.4062,9.1459
38022.0,-3.2202,2.3822,9.1602
38032.0,-3.1867,2.4038,9.1099
38042.0,-3.1532,2.4541,9.0812
38052.0,-3.2609,2.3607,9.2656
38062.0,-3.3255,2.3774,9.3733
38072.0,-3.2729,2.32,9.5265
38082.0,-3.2106,2.2529,9.5098
38092.0,-2.9951,2.1859,9.4332
38102.0,-2.6528,2.1237,9.323
38112.0,-2.7366,1.9776,9.3063
38122.0,-3.225,1.8387,9.6989
38132.0,-3.3567,1.8627,9.7133
38142.0,-3.6248,1.9034,10.1035
38152.0,-3.7709,1.7861,10.4267
38162.0,-3.7062,1.6735,10.3286
38172.0,-3.5458,1.3384,10.2831
38182.0,-3.2513,1.2857,10.1658
38192.0,-2.7438,1.4078,9.6031
38202.0,-2.229,1.6879,8.9591
38212.0,-1.9465,1.8196,8.7364
38222.0,-2.0279,1.7837,8.6335
38232.0,-2.6264,1.8172,9.3182
38242.0,-3.4477,1.5155,10.1969
38252.0,-4.3598,1.3264,11.2312
38262.0,-4.6735,1.4509,11.7388
38272.0,-4.5346,1.5467,11.7316
38282.0,-3.9911,1.5251,10.8888
38292.0,-3.2633,1.5083,9.9527
38302.0,-2.5259,1.5107,9.2392
38312.0,-2.2338,1.494,8.5114
38322.0,-2.1811,1.415,8.5497
38332.0,-2.4828,1.4102,8.7149
38342.0,-2.6073,1.4533,9.0597
38352.0,-2.9353,1.2713,9.5361
38362.0,-3.3447,1.0175,9.9479
38372.0,-3.4548,0.9337,10.1323
38382.0,-3.3758,1.0032,10.1131
38392.0,-3.0167,0.8835,9.6798
38402.0,-2.5522,0.9385,9.1674
38412.0,-2.0806,0.996,8.4803
38422.0,-1.8794,1.1253,8.1762
38432.0,-1.9489,1.1588,8.2025
38442.0,-2.1284,1.2163,8.6431
38452.0,-2.6743,1.1492,9.165
38462.0,-2.9544,1.1636,9.5361
38472.0,-3.2082,1.1301,9.9623
38482.0,-3.2465,1.245,9.9814
38492.0,-3.2082,1.2474,9.8904
38502.0,-3.043,1.1995,9.5553
38512.0,-2.9999,1.221,9.3972
38522.0,-2.8778,1.3001,9.2632
38532.0,-2.6671,1.3527,9.2392
38542.0,-2.5642,1.4389,9.1554
38552.0,-2.5762,1.3982,9.0908
38562.0,-2.5498,1.3479,9.1147
38572.0,-2.8419,1.391,9.5624
38582.0,-2.9712,1.5036,9.8952
38592.0,-2.9856,1.5443,10.0221
38602.0,-3.0335,1.5012,10.1466
38612.0,-2.8419,1.5036,9.7971
38622.0,-2.6671,1.5347,9.572
38632.0,-2.6863,1.5203,9.584
38642.0,-2.7294,1.7047,9.7372
38652.0,-2.6983,1.7789,9.7851
38662.0,-2.8395,1.7645,9.9742
38672.0,-3.0023,1.8172,10.2448
38682.0,-3.2992,1.7789,10.671
38692.0,-3.292,1.7549,10.7883
38702.0,-3.2274,1.7502,10.7739
38712.0,-3.1651,1.6257,10.5489
38722.0,-3.0263,1.6664,10.4483
38732.0,-2.964,1.7406,10.1155
38742.0,-3.0885,1.6879,10.4339
38752.0,-3.2178,1.6664,10.5441
38762.0,-3.4548,1.6089,10.9798
38772.0,-3.2872,1.6927,10.987
38782.0,-3.0957,1.7023,10.8553
38792.0,-3.1532,1.7358,10.2472
38802.0,-3.1771,1.7119,9.5864
38812.0,-3.2394,1.8028,9.4092
38822.0,-3.6368,1.9249,9.5457
38832.0,-4.2593,2.0782,9.8952
38842.0,-4.81,2.0518,10.3334
38852.0,-5.2385,1.9321,10.6662
38862.0,-5.1834,2.0758,10.7308
38872.0,-5.102,2.0087,10.5201
38882.0,-4.5059,1.8675,9.8474
38892.0,-3.8116,1.9369,9.1794
38902.0,-3.1292,1.9704,8.327
38912.0,-2.5881,1.9561,7.9535
38922.0,-2.5091,2.1284,7.5753
38932.0,-2.6839,2.0135,7.6567
38942.0,-3.0837,1.992,8.0302
38952.0,-3.5602,1.9417,8.3462
38962.0,-4.0701,1.9058,8.8035
38972.0,-4.5035,1.8387,9.4834
38982.0,-4.6519,1.8124,9.8761
38992.0,-4.8028,1.6927,10.2017
39002.0,-4.707,1.6137,10.149
39012.0,-4.4412,1.4629,9.6582
39022.0,-4.0175,1.4317,9.2225
39032.0,-3.4884,1.1779,8.6048
39042.0,-3.2825,1.0702,8.3103
39052.0,-3.3782,0.8332,8.2576
39062.0,-3.6009,0.7853,8.5042
39072.0,-3.6823,0.7398,8.8274
39082.0,-3.7757,0.656,9.2392
39092.0,-3.8259,0.4238,9.4667
39102.0,-3.723,0.3208,9.5864
39112.0,-3.5123,0.2658,9.651
39122.0,-3.3016,0.2179,9.4667
39132.0,-3.1173,0.2059,9.1794
39142.0,-3.0454,0.1389,9.2368
39152.0,-2.9449,0.0814,9.3829
39162.0,-3.0981,0.0215,9.742
39172.0,-3.2609,0.0287,9.9431
39182.0,-3.4405,0.1437,10.1299
39192.0,-3.62,0.1772,10.4291
39202.0,-3.6799,0.1748,10.6925
39212.0,-3.6607,0.1676,10.7619
39222.0,-3.5698,0.3017,10.6518
39232.0,-3.3471,0.2705,10.2496
39242.0,-3.1603,0.3208,10.0126
39252.0,-3.0358,0.249,9.9503
39262.0,-3.292,0.2346,10.1682
39272.0,-3.5434,0.1556,10.3525
39282.0,-3.5745,0.1149,10.6326
39292.0,-3.2034,0.1149,10.908
39302.0,-3.3088,0.0527,11.0014
39312.0,-3.5123,-0.0551,10.7117
39322.0,-3.6631,0.0766,10.4818
39332.0,-3.6009,0.2705,10.0413
39342.0,-3.7278,0.4094,9.8258
39352.0,-4.1539,0.7446,9.6917
39362.0,-4.4029,0.8739,9.7827
39372.0,-4.4963,1.1109,9.8186
39382.0,-4.3167,1.2258,9.8258
39392.0,-4.0725,1.0798,9.7659
39402.0,-3.5961,0.9553,9.8138
39412.0,-3.0358,0.893,9.6654
39422.0,-2.5043,0.8404,9.663
39432.0,-2.32,0.7949,9.2201
39442.0,-2.3296,0.668,8.9687
39452.0,-2.3056,0.5435,8.588
39462.0,-2.4588,0.5052,9.0764
39472.0,-2.8515,0.4286,9.3565
39482.0,-3.1412,0.2849,9.9575
39492.0,-3.4548,0.2586,10.4842
39502.0,-3.5219,0.2586,10.58
39512.0,-3.4189,0.4286,10.3406
39522.0,-3.2537,0.5938,9.7899
39532.0,-3.0047,0.8236,9.1985
39542.0,-2.6097,0.9673,8.6742
39552.0,-2.2146,1.1037,8.0709
39562.0,-2.2027,1.2689,7.8171
39572.0,-2.3032,1.3312,7.695
39582.0,-2.5355,1.3216,7.8769
39592.0,-2.66,1.233,8.1499
39602.0,-2.8706,1.2761,8.6167
39612.0,-3.158,1.2953,9.1818
39622.0,-3.1819,1.4653,9.5481
39632.0,-2.9137,1.47,9.5888
39642.0,-2.5379,1.4269,9.0908
39652.0,-2.0614,1.4533,8.4755
39662.0,-1.8076,1.4844,7.8961
39672.0,-1.7573,1.5131,7.7309
39682.0,-2.0207,1.5562,8.3007
39692.0,-2.4014,1.5826,8.9878
39702.0,-2.8012,1.6041,9.6774
39712.0,-3.1651,1.6328,10.41
39722.0,-3.3327,1.6712,10.8242
39732.0,-3.4117,1.5969,10.9822
39742.0,-3.1675,1.5826,10.738
39752.0,-2.8778,1.5706,10.2639
39762.0,-2.7342,1.5562,9.7468
39772.0,-2.6504,1.5347,9.6702
39782.0,-2.7438,1.5419,9.9671
39792.0,-2.9712,1.6951,10.477
39802.0,-3.1699,1.6568,10.9223
39812.0,-3.1077,1.7502,11.145
39822.0,-2.6097,1.6616,11.0732
39832.0,-2.5977,1.6472,10.7571
39842.0,-2.9568,1.5419,10.0149
39852.0,-3.4093,1.5562,9.8857
39862.0,-3.9121,1.5514,9.8809
39872.0,-4.5681,1.5706,10.0341
39882.0,-5.3056,1.5634,10.5105
39892.0,-5.9735,1.4653,10.8386
39902.0,-6.4093,1.3671,11.0588
39912.0,-6.2345,1.2881,11.4443
39922.0,-5.5857,1.2953,11.2934
39932.0,-4.5993,1.2809,10.7739
39942.0,-3.5386,1.2378,9.8186
39952.0,-2.557,1.2546,8.8155
39962.0,-1.98,1.0894,7.9966
39972.0,-1.9249,1.0822,7.8075
39982.0,-2.4708,1.2043,8.1211
39992.0,-3.3662,1.1708,9.0357
40002.0,-3.9816,1.3024,9.8258
40012.0,-4.3335,1.3216,10.4555
40022.0,-4.7357,1.1875,10.6446
40032.0,-4.9584,1.2019,10.671
40042.0,-4.7285,1.2737,10.4267
40052.0,-4.5035,1.3288,10.1275
40062.0,-4.063,1.2761,9.4619
40072.0,-3.802,1.0774,8.9998
40082.0,-3.6176,0.9098,8.4467
40092.0,-3.6559,0.7494,8.3318
40102.0,-3.7086,0.4693,8.6287
40112.0,-3.7876,0.4597,8.9136
40122.0,-3.8164,0.2538,9.323
40132.0,-3.8499,0.1724,9.3589
40142.0,-3.5913,0.0431,9.3158
40152.0,-3.2801,0.1317,9.1435
40162.0,-3.0047,0.2131,8.9064
40172.0,-2.8467,0.2083,8.3127
